Scale_setup.started,Scale_setup.stopped,participant,session,sex,age,date,expName,psychopyVersion,OS,frameRate,screen_scale_keys.started,screen_scale_keys.stopped,X Scale,Y Scale,rectangel_keys.started,rectangel_keys.stopped,Intro.started,Intro.stopped,key_resp_2.keys,key_resp_2.rt,key_resp_2.duration,block.started,Block_id,block.stopped,Block_resp_2.keys,Block_resp_2.rt,Block_resp_2.duration,ITI.started,ITI.stopped,Mask_2.started,Mask_2.stopped,M2.started,direction,M2.stopped,Cue.started,Cue.stopped,Response.started,Response.stopped,keyDuration,Feedback_Time.started,FeedbackID_T,Feedback_Time.stopped,trials.thisRepN,trials.thisTrialN,trials.thisN,trials.thisIndex,trials.ran,TimeDur,Coherence1,TrialType
0.0001,0.0003,557697,001,1,24,2025-04-23_18h19.09.691,Serial_Dependence_U,2023.2.3,Win32,120.4819277,,,,,,,,,,,,,,,,,,,,,,,,,,,,,,,,,,,,,,,,
,,557697,001,1,24,2025-04-23_18h19.09.691,Serial_Dependence_U,2023.2.3,Win32,120.4819277,0.0015,70.6489,0.0343,0.0342,70.6489,80.8155,80.8156,246.1565,space,165.2967,,,,,,,,,,,,,,,,,,,,,,,,,,,,,,
,,557697,001,1,24,2025-04-23_18h19.09.691,Serial_Dependence_U,2023.2.3,Win32,120.4819277,,,,,,,,,,,,246.1646,0,249.1563,s,2.9761,,251.6814,252.1813,251.1733,251.6813,250.1651,310,251.1732,252.1813,252.6813,252.6815,258.6899,9999,258.6901,0,259.6896,0,0,0,29,1,1,0.7,Time
,,557697,001,1,24,2025-04-23_18h19.09.691,Serial_Dependence_U,2023.2.3,Win32,120.4819277,,,,,,,,,,,,259.69,0,259.6911,,,,262.408,262.9062,261.8997,262.408,260.698,94,261.8996,262.9062,263.4062,263.4062,269.4194,9999,269.4195,0,270.4168,0,1,1,31,1,1.2,0.7,Time
,,557697,001,1,24,2025-04-23_18h19.09.691,Serial_Dependence_U,2023.2.3,Win32,120.4819277,,,,,,,,,,,,270.417,0,270.4171,,,,273.4255,273.925,272.9229,273.4255,271.4169,177,272.9229,273.9251,274.4228,274.4228,280.4312,9999,280.4312,0,281.431,0,2,2,16,1,1.5,0.7,Time
,,557697,001,1,24,2025-04-23_18h19.09.691,Serial_Dependence_U,2023.2.3,Win32,120.4819277,,,,,,,,,,,,281.4313,0,281.4314,,,,284.448,284.9477,283.9395,284.4479,282.4313,348,283.9395,284.9478,285.4478,285.4478,291.4561,9999,291.4563,0,292.456,0,3,3,43,1,1.5,0.3,Time
,,557697,001,1,24,2025-04-23_18h19.09.691,Serial_Dependence_U,2023.2.3,Win32,120.4819277,,,,,,,,,,,,292.4563,0,292.4563,,,,295.2754,295.7726,294.767,295.2753,293.4646,309,294.767,295.7727,296.2749,296.2749,299.3922,1241.7,299.3923,3,300.3894,0,4,4,32,1,1.3,0.7,Time
,,557697,001,1,24,2025-04-23_18h19.09.691,Serial_Dependence_U,2023.2.3,Win32,120.4819277,,,,,,,,,,,,300.3896,0,300.3897,,,,303.516,304.0143,303.0062,303.516,301.3979,255,303.0062,304.0143,304.5143,304.5143,305.6004,546.1,305.6004,1,306.5976,0,5,5,8,1,1.6,0.3,Time
,,557697,001,1,24,2025-04-23_18h19.09.691,Serial_Dependence_U,2023.2.3,Win32,120.4819277,,,,,,,,,,,,306.5978,0,306.5979,,,,309.2229,309.7226,308.7145,309.2228,307.6062,78,308.7144,309.7226,310.2226,310.2226,311.6394,867,311.6396,2,312.6392,0,6,6,21,1,1.1,0.3,Time
,,557697,001,1,24,2025-04-23_18h19.09.691,Serial_Dependence_U,2023.2.3,Win32,120.4819277,,,,,,,,,,,,312.6394,0,312.6396,,,,315.3645,315.8642,314.8561,315.3645,313.6479,13,314.8561,315.8642,316.3642,316.3643,318.406,1307.9,318.4061,4,319.4059,0,7,7,40,1,1.2,0.3,Time
,,557697,001,1,24,2025-04-23_18h19.09.691,Serial_Dependence_U,2023.2.3,Win32,120.4819277,,,,,,,,,,,,319.4061,0,319.4061,,,,322.4311,322.9309,321.9228,322.4311,320.4145,32,321.9228,322.9309,323.4309,323.4309,325.1476,1107.8,325.1477,2,326.1475,0,8,8,34,1,1.5,0.7,Time
,,557697,001,1,24,2025-04-23_18h19.09.691,Serial_Dependence_U,2023.2.3,Win32,120.4819277,,,,,,,,,,,,326.1477,0,326.1478,,,,328.4726,328.9725,327.9644,328.4726,327.1559,14,327.9644,328.9725,329.4725,329.4725,330.581,629.9,330.5811,2,331.5808,0,9,9,18,1,0.8,0.3,Time
,,557697,001,1,24,2025-04-23_18h19.09.691,Serial_Dependence_U,2023.2.3,Win32,120.4819277,,,,,,,,,,,,331.581,0,331.5811,,,,334.6061,335.1058,334.0977,334.606,332.5894,148,334.0977,335.1059,335.6058,335.6058,337.1893,1182.4,337.1894,2,338.1891,0,10,10,52,1,1.5,0.7,Time
,,557697,001,1,24,2025-04-23_18h19.09.691,Serial_Dependence_U,2023.2.3,Win32,120.4819277,,,,,,,,,,,,338.1893,0,338.1894,,,,340.5145,341.0141,340.006,340.5144,339.1976,90,340.0059,341.0142,341.5142,341.5142,343.9392,1525.8,343.9392,5,344.9391,0,11,11,45,1,0.8,0.7,Time
,,557697,001,1,24,2025-04-23_18h19.09.691,Serial_Dependence_U,2023.2.3,Win32,120.4819277,,,,,,,,,,,,344.9394,0,344.9394,,,,347.3644,347.8641,346.8559,347.3643,345.9476,3,346.8559,347.8641,348.3641,348.3641,349.8559,954.8,349.8561,4,350.8558,0,12,12,10,1,0.9,0.7,Time
,,557697,001,1,24,2025-04-23_18h19.09.691,Serial_Dependence_U,2023.2.3,Win32,120.4819277,,,,,,,,,,,,350.856,0,350.856,,,,353.481,353.9808,352.9726,353.4809,351.8643,99,352.9726,353.9808,354.4807,354.4807,356.2641,1008.9,356.2642,2,357.264,0,13,13,3,1,1.1,0.3,Time
,,557697,001,1,24,2025-04-23_18h19.09.691,Serial_Dependence_U,2023.2.3,Win32,120.4819277,,,,,,,,,,,,357.2642,0,357.2643,,,,359.6833,360.1806,359.1749,359.6833,358.2643,221,359.1748,360.1807,360.6807,360.6807,362.2107,1157.9,362.2108,4,363.2057,0,14,14,28,1,0.9,0.7,Time
,,557697,001,1,24,2025-04-23_18h19.09.691,Serial_Dependence_U,2023.2.3,Win32,120.4819277,,,,,,,,,,,,363.2058,0,363.2059,,,,365.731,366.2308,365.2226,365.7309,364.219,48,365.2226,366.2308,366.7306,366.7306,367.964,693.9,367.9641,1,368.9639,0,15,15,47,1,1,0.7,Time
,,557697,001,1,24,2025-04-23_18h19.09.691,Serial_Dependence_U,2023.2.3,Win32,120.4819277,,,,,,,,,,,,368.9641,0,368.9642,,,,371.6892,372.1889,371.1809,371.6891,369.9726,131,371.1808,372.189,372.6889,372.6889,374.1641,1116.1,374.1643,2,375.164,0,16,16,4,1,1.2,0.3,Time
,,557697,001,1,24,2025-04-23_18h19.09.691,Serial_Dependence_U,2023.2.3,Win32,120.4819277,,,,,,,,,,,,375.1641,0,375.1642,,,,377.6892,378.1889,377.1809,377.6892,376.1725,2,377.1808,378.1889,378.689,378.689,380.2641,1079.3,380.2642,4,381.2639,0,17,17,38,1,1,0.3,Time
,,557697,001,1,24,2025-04-23_18h19.09.691,Serial_Dependence_U,2023.2.3,Win32,120.4819277,,,,,,,,,,,,381.2642,0,381.2642,,,,384.3891,384.8889,383.8809,384.389,382.2724,329,383.8808,384.889,385.3889,385.3889,385.439,28.7,385.4391,1,386.4389,0,18,18,17,1,1.6,0.7,Time
,,557697,001,1,24,2025-04-23_18h19.09.691,Serial_Dependence_U,2023.2.3,Win32,120.4819277,,,,,,,,,,,,386.439,0,386.4392,,,,389.2641,389.7638,388.7557,389.264,387.4474,100,388.7557,389.7638,390.2638,390.2638,392.0556,1121.8,392.0557,2,393.0556,0,19,19,23,1,1.3,0.3,Time
,,557697,001,1,24,2025-04-23_18h19.09.691,Serial_Dependence_U,2023.2.3,Win32,120.4819277,,,,,,,,,,,,393.0558,0,393.0558,,,,395.9808,396.4805,395.4725,395.9808,394.064,161,395.4724,396.4805,396.9806,396.9806,398.689,942.7,398.6891,1,399.6889,0,20,20,15,1,1.4,0.7,Time
,,557697,001,1,24,2025-04-23_18h19.09.691,Serial_Dependence_U,2023.2.3,Win32,120.4819277,,,,,,,,,,,,399.689,0,399.6892,,,,402.614,403.1138,402.1057,402.614,400.6975,212,402.1056,403.1138,403.6139,403.6139,405.8556,1779,405.8556,4,406.8554,0,21,21,51,1,1.4,0.7,Time
,,557697,001,1,24,2025-04-23_18h19.09.691,Serial_Dependence_U,2023.2.3,Win32,120.4819277,,,,,,,,,,,,406.8557,0,406.8558,,,,409.5807,410.0805,409.0723,409.5806,407.8641,75,409.0723,410.0805,410.5805,410.5805,412.7473,1558.2,412.7473,4,413.7472,0,22,22,13,1,1.2,0.7,Time
,,557697,001,1,24,2025-04-23_18h19.09.691,Serial_Dependence_U,2023.2.3,Win32,120.4819277,,,,,,,,,,,,413.7474,0,413.7474,,,,416.3722,416.872,415.8664,416.3722,414.758,100,415.8664,416.8721,417.3721,417.3721,418.7807,1060.6,418.7807,3,419.7826,0,23,23,39,1,1.1,0.3,Time
,,557697,001,1,24,2025-04-23_18h19.09.691,Serial_Dependence_U,2023.2.3,Win32,120.4819277,,,,,,,,,,,,419.7828,0,419.7828,,,,422.4973,422.9971,421.9913,422.4973,420.7831,326,421.9913,422.9971,423.4971,423.4971,425.0054,885.5,425.0055,2,426.0053,0,24,24,22,1,1.2,0.3,Time
,,557697,001,1,24,2025-04-23_18h19.09.691,Serial_Dependence_U,2023.2.3,Win32,120.4819277,,,,,,,,,,,,426.0055,0,426.0056,,,,428.7164,429.2137,428.2139,428.7163,427.008,15,428.2139,429.2137,429.7076,429.7076,432.1749,1266.8,432.1749,4,433.1741,0,25,25,49,1,1.2,0.7,Time
,,557697,001,1,24,2025-04-23_18h19.09.691,Serial_Dependence_U,2023.2.3,Win32,120.4819277,,,,,,,,,,,,433.1743,0,433.1744,,,,435.6914,436.1907,435.183,435.6914,434.175,291,435.1829,436.1907,436.6927,436.6927,438.0488,828,438.0488,2,439.047,0,26,26,2,1,1,0.3,Time
,,557697,001,1,24,2025-04-23_18h19.09.691,Serial_Dependence_U,2023.2.3,Win32,120.4819277,,,,,,,,,,,,439.0472,0,439.0472,,,,441.3555,441.8575,440.8471,441.3555,440.0413,16,440.8471,441.8576,442.3552,442.3553,443.397,668.2,443.3971,2,444.3969,0,27,27,9,1,0.8,0.7,Time
,,557697,001,1,24,2025-04-23_18h19.09.691,Serial_Dependence_U,2023.2.3,Win32,120.4819277,,,,,,,,,,,,444.3972,0,444.3972,,,,447.3222,447.822,446.8138,447.3221,445.4055,117,446.8138,447.822,448.322,448.322,449.7721,991.2,449.7722,2,450.7719,0,28,28,6,1,1.4,0.3,Time
,,557697,001,1,24,2025-04-23_18h19.09.691,Serial_Dependence_U,2023.2.3,Win32,120.4819277,,,,,,,,,,,,450.7722,0,450.7722,,,,453.5972,454.0969,453.0889,453.5971,451.7803,351,453.0888,454.097,454.5969,454.5969,456.1638,961.9,456.1638,2,457.1636,0,29,29,41,1,1.3,0.3,Time
,,557697,001,1,24,2025-04-23_18h19.09.691,Serial_Dependence_U,2023.2.3,Win32,120.4819277,,,,,,,,,,,,457.1638,0,457.1639,,,,460.0887,460.5885,459.5804,460.0887,458.1722,105,459.5804,460.5885,461.0886,461.0886,463.422,1432.9,463.4221,3,464.4219,0,30,30,33,1,1.4,0.7,Time
,,557697,001,1,24,2025-04-23_18h19.09.691,Serial_Dependence_U,2023.2.3,Win32,120.4819277,,,,,,,,,,,,464.4221,0,464.4222,,,,466.9471,467.4469,466.4387,466.947,465.4304,151,466.4387,467.4469,467.9468,467.9468,470.8303,894.3,470.8304,2,471.8302,0,31,31,20,1,1,0.3,Time
,,557697,001,1,24,2025-04-23_18h19.09.691,Serial_Dependence_U,2023.2.3,Win32,120.4819277,,,,,,,,,,,,471.8303,0,471.8304,,,,474.4411,474.9384,473.9387,474.4411,472.8304,354,473.9387,474.9384,475.4385,475.4385,477.072,1135.3,477.072,3,478.0718,0,32,32,12,1,1.1,0.7,Time
,,557697,001,1,24,2025-04-23_18h19.09.691,Serial_Dependence_U,2023.2.3,Win32,120.4819277,,,,,,,,,,,,478.072,0,478.0721,,,,480.8887,481.3885,480.3804,480.8886,479.0745,137,480.3804,481.3885,481.8823,481.8823,482.0302,138.3,482.0303,1,483.0301,0,33,33,5,1,1.3,0.3,Time
,,557697,001,1,24,2025-04-23_18h19.09.691,Serial_Dependence_U,2023.2.3,Win32,120.4819277,,,,,,,,,,,,483.0302,0,483.0303,,,,485.9487,486.4468,485.4386,485.9487,484.0328,312,485.4386,486.4468,486.9467,486.9468,488.6052,1240.2,488.6052,2,489.6072,0,34,34,42,1,1.4,0.3,Time
,,557697,001,1,24,2025-04-23_18h19.09.691,Serial_Dependence_U,2023.2.3,Win32,120.4819277,,,,,,,,,,,,489.6074,0,489.6075,,,,491.9246,492.4239,491.4162,491.9246,490.6078,121,491.4162,492.4239,492.9239,492.924,494.7745,1191.6,494.7746,5,495.7738,0,35,35,0,1,0.8,0.3,Time
,,557697,001,1,24,2025-04-23_18h19.09.691,Serial_Dependence_U,2023.2.3,Win32,120.4819277,,,,,,,,,,,,495.7741,0,495.7741,,,,498.5885,499.0884,498.0826,498.5885,496.7803,90,498.0826,499.0884,499.5822,499.5822,500.9135,756.8,500.9135,1,501.9155,0,36,36,14,1,1.3,0.7,Time
,,557697,001,1,24,2025-04-23_18h19.09.691,Serial_Dependence_U,2023.2.3,Win32,120.4819277,,,,,,,,,,,,501.9157,0,501.9157,,,,504.3247,504.8237,503.8244,504.3246,502.916,170,503.8244,504.8237,505.3175,505.3175,506.9826,1066.6,506.9827,4,507.98,0,37,37,1,1,0.9,0.3,Time
,,557697,001,1,24,2025-04-23_18h19.09.691,Serial_Dependence_U,2023.2.3,Win32,120.4819277,,,,,,,,,,,,507.9803,0,507.9803,,,,510.2997,510.7966,509.7885,510.2997,508.9831,323,509.7885,510.7966,511.2966,511.2967,512.4155,611.8,512.4156,2,513.4134,0,38,38,36,1,0.8,0.3,Time
,,557697,001,1,24,2025-04-23_18h19.09.691,Serial_Dependence_U,2023.2.3,Win32,120.4819277,,,,,,,,,,,,513.4135,0,513.4136,,,,516.5245,517.0243,516.0241,516.5245,514.4136,137,516.0241,517.0244,517.5217,517.5217,518.9884,1047.3,518.9884,1,519.9882,0,39,39,44,1,1.6,0.3,Time
,,557697,001,1,24,2025-04-23_18h19.09.691,Serial_Dependence_U,2023.2.3,Win32,120.4819277,,,,,,,,,,,,519.9884,0,519.9885,,,,522.8134,523.3131,522.3051,522.8134,520.9968,270,522.305,523.3131,523.8133,523.8133,525.6967,1361.5,525.6968,3,526.6966,0,40,40,50,1,1.3,0.7,Time
,,557697,001,1,24,2025-04-23_18h19.09.691,Serial_Dependence_U,2023.2.3,Win32,120.4819277,,,,,,,,,,,,526.6968,0,526.6968,,,,529.3163,529.8132,528.805,529.3162,527.6991,276,528.805,529.8132,530.3132,530.3132,531.8551,1005.7,531.8552,2,532.8549,0,41,41,30,1,1.1,0.7,Time
,,557697,001,1,24,2025-04-23_18h19.09.691,Serial_Dependence_U,2023.2.3,Win32,120.4819277,,,,,,,,,,,,532.8551,0,532.8552,,,,535.2825,535.7798,534.7744,535.2825,533.8634,307,534.7744,535.7798,536.2799,536.2799,537.4717,1107.1,537.4718,4,538.4715,0,42,42,37,1,0.9,0.3,Time
,,557697,001,1,24,2025-04-23_18h19.09.691,Serial_Dependence_U,2023.2.3,Win32,120.4819277,,,,,,,,,,,,538.4717,0,538.4717,,,,541.4966,541.9965,540.9883,541.4966,539.48,3,540.9883,541.9965,542.4966,542.4966,544.355,1331.3,544.3551,2,545.3549,0,43,43,25,1,1.5,0.3,Time
,,557697,001,1,24,2025-04-23_18h19.09.691,Serial_Dependence_U,2023.2.3,Win32,120.4819277,,,,,,,,,,,,545.355,0,545.3551,,,,548.4801,548.9798,547.9717,548.4799,546.3634,130,547.9717,548.9798,549.4798,549.4798,551.2049,1416.3,551.2051,2,552.2048,0,44,44,53,1,1.6,0.7,Time
,,557697,001,1,24,2025-04-23_18h19.09.691,Serial_Dependence_U,2023.2.3,Win32,120.4819277,,,,,,,,,,,,552.205,0,552.2051,,,,554.5216,555.0215,554.0133,554.5216,553.2051,261,554.0133,555.0215,555.5213,555.5213,556.7799,832,556.7801,3,557.7798,0,45,45,27,1,0.8,0.7,Time
,,557697,001,1,24,2025-04-23_18h19.09.691,Serial_Dependence_U,2023.2.3,Win32,120.4819277,,,,,,,,,,,,557.7799,0,557.78,,,,560.1966,560.6964,559.6883,560.1966,558.7799,102,559.6882,560.6964,561.1964,561.1964,562.4574,850,562.4575,2,563.4547,0,46,46,46,1,0.9,0.7,Time
,,557697,001,1,24,2025-04-23_18h19.09.691,Serial_Dependence_U,2023.2.3,Win32,120.4819277,,,,,,,,,,,,563.4549,0,563.455,,,,565.9741,566.4736,565.4716,565.9741,564.4632,352,565.4715,566.4736,566.9714,566.9714,568.4241,1014.4,568.4241,3,569.4214,0,47,47,11,1,1,0.7,Time
,,557697,001,1,24,2025-04-23_18h19.09.691,Serial_Dependence_U,2023.2.3,Win32,120.4819277,,,,,,,,,,,,569.4215,0,569.4216,,,,572.5407,573.038,572.0298,572.5406,570.4215,0,572.0298,573.038,573.538,573.538,575.2732,1141.7,575.2734,2,576.2714,0,48,48,26,1,1.6,0.3,Time
,,557697,001,1,24,2025-04-23_18h19.09.691,Serial_Dependence_U,2023.2.3,Win32,120.4819277,,,,,,,,,,,,576.2715,0,576.2716,,,,579.1989,579.7006,578.6906,579.1989,577.2823,112,578.6906,579.7007,580.1963,580.1963,581.999,1328,581.9991,2,582.9985,0,49,49,24,1,1.4,0.3,Time
,,557697,001,1,24,2025-04-23_18h19.09.691,Serial_Dependence_U,2023.2.3,Win32,120.4819277,,,,,,,,,,,,582.9987,0,582.9988,,,,586.0157,586.513,585.5048,586.0156,583.9965,258,585.5048,586.513,587.0129,587.013,589.1713,1540.2,589.1715,3,590.1713,0,50,50,7,1,1.5,0.3,Time
,,557697,001,1,24,2025-04-23_18h19.09.691,Serial_Dependence_U,2023.2.3,Win32,120.4819277,,,,,,,,,,,,590.1715,0,590.1715,,,,592.5905,593.0901,592.0881,592.5905,591.1821,106,592.0881,593.0901,593.588,593.588,594.9825,875.2,594.9825,3,595.9794,0,51,51,19,1,0.9,0.3,Time
,,557697,001,1,24,2025-04-23_18h19.09.691,Serial_Dependence_U,2023.2.3,Win32,120.4819277,,,,,,,,,,,,595.9797,0,595.9797,,,,598.6047,599.1046,598.0964,598.6047,596.9907,253,598.0964,599.1046,599.5985,599.5985,600.9046,870.6,600.9048,2,601.9007,0,52,52,48,1,1.1,0.7,Time
,,557697,001,1,24,2025-04-23_18h19.09.691,Serial_Dependence_U,2023.2.3,Win32,120.4819277,,,,,,,,,,,,601.9009,0,601.9009,,,,605.0213,605.5234,604.5131,605.0213,602.9072,274,604.513,605.5234,606.0212,606.0212,608.113,1362.4,608.1131,2,609.1129,0,53,53,35,1,1.6,0.7,Time
,,557697,001,1,24,2025-04-23_18h19.09.691,Serial_Dependence_U,2023.2.3,Win32,120.4819277,,,,,,,,,,,,609.113,1,663.8127,s,54.6887,,666.6236,667.1209,666.1211,666.6236,664.8152,251,666.121,667.1209,667.6231,667.6231,669.5212,1364.7,669.5212,3,670.5209,1,0,54,5,1,1.3,0.3,Time
,,557697,001,1,24,2025-04-23_18h19.09.691,Serial_Dependence_U,2023.2.3,Win32,120.4819277,,,,,,,,,,,,670.5211,1,670.5217,,,,673.2378,673.7375,672.7294,673.2377,671.5211,309,672.7294,673.7375,674.2375,674.2375,675.7291,1159.2,675.7292,3,676.7291,1,1,55,31,1,1.2,0.7,Time
,,557697,001,1,24,2025-04-23_18h19.09.691,Serial_Dependence_U,2023.2.3,Win32,120.4819277,,,,,,,,,,,,676.7294,1,676.7295,,,,679.3543,679.8542,678.8461,679.3543,677.7378,84,678.846,679.8542,680.3542,680.3542,681.9211,1031.5,681.9212,2,682.9208,1,2,56,48,1,1.1,0.7,Time
,,557697,001,1,24,2025-04-23_18h19.09.691,Serial_Dependence_U,2023.2.3,Win32,120.4819277,,,,,,,,,,,,682.921,1,682.921,,,,685.9459,686.4458,685.4377,685.9459,683.9293,145,685.4377,686.4459,686.9458,686.9459,688.7959,1328.2,688.7961,2,689.7958,1,3,57,52,1,1.5,0.7,Time
,,557697,001,1,24,2025-04-23_18h19.09.691,Serial_Dependence_U,2023.2.3,Win32,120.4819277,,,,,,,,,,,,689.796,1,689.7961,,,,692.721,693.2207,692.2127,692.7209,690.8043,280,692.2127,693.2208,693.7208,693.7208,695.5875,1356,695.5876,3,696.5875,1,4,58,6,1,1.4,0.3,Time
,,557697,001,1,24,2025-04-23_18h19.09.691,Serial_Dependence_U,2023.2.3,Win32,120.4819277,,,,,,,,,,,,696.5877,1,696.5877,,,,699.6043,700.1041,699.0959,699.6043,697.5877,138,699.0958,700.1041,700.6041,700.6041,702.4291,1242.1,702.4292,2,703.4291,1,5,59,25,1,1.5,0.3,Time
,,557697,001,1,24,2025-04-23_18h19.09.691,Serial_Dependence_U,2023.2.3,Win32,120.4819277,,,,,,,,,,,,703.4293,1,703.4294,,,,705.8543,706.354,705.3459,705.8543,704.4376,234,705.3459,706.3541,706.854,706.8541,707.6709,491.6,707.671,1,708.6707,1,6,60,28,1,0.9,0.7,Time
,,557697,001,1,24,2025-04-23_18h19.09.691,Serial_Dependence_U,2023.2.3,Win32,120.4819277,,,,,,,,,,,,708.6709,1,708.671,,,,711.0959,711.5957,710.5875,711.0958,709.6793,97,710.5875,711.5957,712.0957,712.0957,713.5958,865.2,713.5959,3,714.5978,1,7,61,46,1,0.9,0.7,Time
,,557697,001,1,24,2025-04-23_18h19.09.691,Serial_Dependence_U,2023.2.3,Win32,120.4819277,,,,,,,,,,,,714.5981,1,714.5981,,,,717.1126,717.6123,716.6066,717.1125,715.5983,128,716.6066,717.6123,718.1122,718.1123,719.479,801.9,719.4791,2,720.479,1,8,62,29,1,1,0.7,Time
,,557697,001,1,24,2025-04-23_18h19.09.691,Serial_Dependence_U,2023.2.3,Win32,120.4819277,,,,,,,,,,,,720.4793,1,720.4793,,,,723.4958,723.9957,722.9875,723.4958,721.4793,187,722.9875,723.9957,724.4956,724.4956,726.3459,1347.7,726.3459,2,727.3456,1,9,63,34,1,1.5,0.7,Time
,,557697,001,1,24,2025-04-23_18h19.09.691,Serial_Dependence_U,2023.2.3,Win32,120.4819277,,,,,,,,,,,,727.3459,1,727.3459,,,,730.2708,730.7705,729.7625,730.2708,728.3542,210,729.7624,730.7706,731.2706,731.2706,733.354,1286.5,733.3541,2,734.3539,1,10,64,33,1,1.4,0.7,Time
,,557697,001,1,24,2025-04-23_18h19.09.691,Serial_Dependence_U,2023.2.3,Win32,120.4819277,,,,,,,,,,,,734.3541,1,734.3542,,,,737.3791,737.8789,736.8708,737.3791,735.3625,67,736.8708,737.8789,738.3789,738.3789,740.3457,1273.4,740.3457,2,741.3455,1,11,65,16,1,1.5,0.7,Time
,,557697,001,1,24,2025-04-23_18h19.09.691,Serial_Dependence_U,2023.2.3,Win32,120.4819277,,,,,,,,,,,,741.3458,1,741.3459,,,,744.1624,744.6622,743.6541,744.1624,742.3458,334,743.6541,744.6622,745.1622,745.1622,747.0874,1318.7,747.0874,3,748.0872,1,12,66,14,1,1.3,0.7,Time
,,557697,001,1,24,2025-04-23_18h19.09.691,Serial_Dependence_U,2023.2.3,Win32,120.4819277,,,,,,,,,,,,748.0874,1,748.0875,,,,751.0124,751.5122,750.5041,751.0124,749.0958,167,750.5041,751.5122,752.0121,752.0121,753.8624,1202.9,753.8625,2,754.8622,1,13,67,24,1,1.4,0.3,Time
,,557697,001,1,24,2025-04-23_18h19.09.691,Serial_Dependence_U,2023.2.3,Win32,120.4819277,,,,,,,,,,,,754.8623,1,754.8624,,,,757.1874,757.6872,756.679,757.1874,755.8707,7,756.679,757.6872,758.1872,758.1872,759.6955,745,759.6956,2,760.6954,1,14,68,45,1,0.8,0.7,Time
,,557697,001,1,24,2025-04-23_18h19.09.691,Serial_Dependence_U,2023.2.3,Win32,120.4819277,,,,,,,,,,,,760.6957,1,760.6958,,,,763.4207,763.9205,762.9123,763.4207,761.7042,227,762.9122,763.9205,764.4203,764.4203,765.8457,1235.9,765.8457,3,766.8412,1,15,69,49,1,1.2,0.7,Time
,,557697,001,1,24,2025-04-23_18h19.09.691,Serial_Dependence_U,2023.2.3,Win32,120.4819277,,,,,,,,,,,,766.8413,1,766.8414,,,,769.4564,769.9537,768.9481,769.4564,767.8397,52,768.9481,769.9537,770.4476,770.4476,772.2956,1219.7,772.2957,4,773.2977,1,16,70,39,1,1.1,0.3,Time
,,557697,001,1,24,2025-04-23_18h19.09.691,Serial_Dependence_U,2023.2.3,Win32,120.4819277,,,,,,,,,,,,773.2979,1,773.298,,,,776.4038,776.9038,775.8979,776.4038,774.2956,117,775.8979,776.9038,777.4037,777.4037,779.3121,1300.1,779.3122,2,780.3121,1,17,71,26,1,1.6,0.3,Time
,,557697,001,1,24,2025-04-23_18h19.09.691,Serial_Dependence_U,2023.2.3,Win32,120.4819277,,,,,,,,,,,,780.3123,1,780.3124,,,,783.4373,783.937,782.9289,783.4372,781.3206,292,782.9288,783.937,784.437,784.437,786.7538,1523.7,786.7538,3,787.7536,1,18,72,53,1,1.6,0.7,Time
,,557697,001,1,24,2025-04-23_18h19.09.691,Serial_Dependence_U,2023.2.3,Win32,120.4819277,,,,,,,,,,,,787.7538,1,787.7539,,,,790.0787,790.5787,789.5705,790.0787,788.7622,131,789.5705,790.5787,791.0786,791.0786,792.5121,689.6,792.5122,2,793.512,1,19,73,27,1,0.8,0.7,Time
,,557697,001,1,24,2025-04-23_18h19.09.691,Serial_Dependence_U,2023.2.3,Win32,120.4819277,,,,,,,,,,,,793.5122,1,793.5122,,,,795.8371,796.3369,795.3288,795.8371,794.5205,134,795.3288,796.337,796.8369,796.8369,798.5371,1070.1,798.5371,5,799.539,1,20,74,0,1,0.8,0.3,Time
,,557697,001,1,24,2025-04-23_18h19.09.691,Serial_Dependence_U,2023.2.3,Win32,120.4819277,,,,,,,,,,,,799.5392,1,799.5394,,,,802.6636,803.162,802.1539,802.6636,800.5455,150,802.1538,803.162,803.6619,803.6619,806.072,1486.5,806.0722,2,807.0702,1,21,75,44,1,1.6,0.3,Time
,,557697,001,1,24,2025-04-23_18h19.09.691,Serial_Dependence_U,2023.2.3,Win32,120.4819277,,,,,,,,,,,,807.0704,1,807.0704,,,,810.0896,810.5869,809.5788,810.0895,808.0729,137,809.5788,810.5869,811.0868,811.0869,813.148,1300,813.1481,2,814.1474,1,22,76,7,1,1.5,0.3,Time
,,557697,001,1,24,2025-04-23_18h19.09.691,Serial_Dependence_U,2023.2.3,Win32,120.4819277,,,,,,,,,,,,814.1477,1,814.1477,,,,816.5644,817.0618,816.0537,816.5643,815.1471,209,816.0537,817.0618,817.5617,817.5617,818.912,538,818.9121,1,819.9118,1,23,77,19,1,0.9,0.3,Time
,,557697,001,1,24,2025-04-23_18h19.09.691,Serial_Dependence_U,2023.2.3,Win32,120.4819277,,,,,,,,,,,,819.912,1,819.9121,,,,822.9287,823.4285,822.4204,822.9287,820.9121,305,822.4203,823.4285,823.9285,823.9285,825.687,1131.1,825.687,2,826.6868,1,24,78,43,1,1.5,0.3,Time
,,557697,001,1,24,2025-04-23_18h19.09.691,Serial_Dependence_U,2023.2.3,Win32,120.4819277,,,,,,,,,,,,826.687,1,826.6871,,,,829.3121,829.8118,828.8037,829.312,827.6953,123,828.8037,829.8118,830.3118,830.3118,832.0869,1170.2,832.087,4,833.0868,1,25,79,21,1,1.1,0.3,Time
,,557697,001,1,24,2025-04-23_18h19.09.691,Serial_Dependence_U,2023.2.3,Win32,120.4819277,,,,,,,,,,,,833.0871,1,833.0871,,,,835.5978,836.0951,835.0953,835.5977,834.0893,157,835.0953,836.0951,836.5951,836.5951,838.1813,841.8,838.1814,2,839.1806,1,26,80,47,1,1,0.7,Time
,,557697,001,1,24,2025-04-23_18h19.09.691,Serial_Dependence_U,2023.2.3,Win32,120.4819277,,,,,,,,,,,,839.1807,1,839.1808,,,,841.8978,842.3992,841.3895,841.8977,840.1811,320,841.3894,842.3992,842.8991,842.8991,844.9585,1418.8,844.9585,4,845.9555,1,27,81,40,1,1.2,0.3,Time
,,557697,001,1,24,2025-04-23_18h19.09.691,Serial_Dependence_U,2023.2.3,Win32,120.4819277,,,,,,,,,,,,845.9558,1,845.9558,,,,848.2787,848.7784,847.7703,848.2787,846.9652,97,847.7703,848.7785,849.2785,849.2785,850.4118,527.8,850.4118,1,851.4117,1,28,82,36,1,0.8,0.3,Time
,,557697,001,1,24,2025-04-23_18h19.09.691,Serial_Dependence_U,2023.2.3,Win32,120.4819277,,,,,,,,,,,,851.4119,1,851.412,,,,854.237,854.7367,853.7287,854.237,852.4203,75,853.7286,854.7367,855.2366,855.2366,856.8701,1015.5,856.8702,2,857.87,1,29,83,23,1,1.3,0.3,Time
,,557697,001,1,24,2025-04-23_18h19.09.691,Serial_Dependence_U,2023.2.3,Win32,120.4819277,,,,,,,,,,,,857.8703,1,857.8703,,,,860.7953,861.295,860.2868,860.7952,858.8786,178,860.2868,861.295,861.7951,861.7951,864.0701,1519.8,864.0702,4,865.07,1,30,84,15,1,1.4,0.7,Time
,,557697,001,1,24,2025-04-23_18h19.09.691,Serial_Dependence_U,2023.2.3,Win32,120.4819277,,,,,,,,,,,,865.0703,1,865.0703,,,,867.4952,867.995,866.9869,867.4952,866.0784,65,866.9868,867.995,868.4949,868.4949,870.1201,1166.7,870.1202,4,871.12,1,31,85,1,1,0.9,0.3,Time
,,557697,001,1,24,2025-04-23_18h19.09.691,Serial_Dependence_U,2023.2.3,Win32,120.4819277,,,,,,,,,,,,871.1202,1,871.1203,,,,873.6452,874.1449,873.1368,873.6452,872.1286,15,873.1368,874.145,874.6448,874.6448,875.7117,1028.4,875.7118,3,876.7117,1,32,86,11,1,1,0.7,Time
,,557697,001,1,24,2025-04-23_18h19.09.691,Serial_Dependence_U,2023.2.3,Win32,120.4819277,,,,,,,,,,,,876.7118,1,876.7118,,,,879.4367,879.9366,878.9285,879.4367,877.7201,225,878.9284,879.9366,880.4365,880.4366,882.0533,1046.5,882.0534,2,883.0533,1,33,87,22,1,1.2,0.3,Time
,,557697,001,1,24,2025-04-23_18h19.09.691,Serial_Dependence_U,2023.2.3,Win32,120.4819277,,,,,,,,,,,,883.0535,1,883.0536,,,,885.6785,886.1782,885.1701,885.6785,884.0618,170,885.17,886.1782,886.6782,886.6782,888.42,1121,888.42,3,889.422,1,34,88,30,1,1.1,0.7,Time
,,557697,001,1,24,2025-04-23_18h19.09.691,Serial_Dependence_U,2023.2.3,Win32,120.4819277,,,,,,,,,,,,889.4222,1,889.4222,,,,892.1393,892.6387,891.6309,892.1393,890.4225,207,891.6309,892.6387,893.1327,893.1327,894.9972,1016.4,894.9973,2,895.9949,1,35,89,4,1,1.2,0.3,Time
,,557697,001,1,24,2025-04-23_18h19.09.691,Serial_Dependence_U,2023.2.3,Win32,120.4819277,,,,,,,,,,,,895.9951,1,895.9951,,,,898.52,899.0198,898.0117,898.52,897.0032,282,898.0117,899.0198,899.5198,899.5199,901.4533,1207.1,901.4534,4,902.4531,1,36,90,2,1,1,0.3,Time
,,557697,001,1,24,2025-04-23_18h19.09.691,Serial_Dependence_U,2023.2.3,Win32,120.4819277,,,,,,,,,,,,902.4533,1,902.4535,,,,905.5699,906.0696,905.0616,905.5699,903.4533,76,905.0615,906.0696,906.5697,906.5697,908.345,1240.1,908.3451,2,909.3469,1,37,91,35,1,1.6,0.7,Time
,,557697,001,1,24,2025-04-23_18h19.09.691,Serial_Dependence_U,2023.2.3,Win32,120.4819277,,,,,,,,,,,,909.3471,1,909.3472,,,,911.9616,912.4637,911.4532,911.9615,910.3476,290,911.4532,912.4637,912.9614,912.9615,915.0365,1386.2,915.0366,4,916.0364,1,38,92,12,1,1.1,0.7,Time
,,557697,001,1,24,2025-04-23_18h19.09.691,Serial_Dependence_U,2023.2.3,Win32,120.4819277,,,,,,,,,,,,916.0366,1,916.0367,,,,918.6639,919.1613,918.1532,918.6639,917.0448,260,918.1532,919.1613,919.6553,919.6553,921.3281,1021.8,921.3281,2,922.3281,1,39,93,3,1,1.1,0.3,Time
,,557697,001,1,24,2025-04-23_18h19.09.691,Serial_Dependence_U,2023.2.3,Win32,120.4819277,,,,,,,,,,,,922.3282,1,922.3284,,,,924.8449,925.3446,924.3366,924.8449,923.3284,216,924.3365,925.3447,925.8447,925.8447,927.6032,1084.5,927.6033,4,928.603,1,40,94,20,1,1,0.3,Time
,,557697,001,1,24,2025-04-23_18h19.09.691,Serial_Dependence_U,2023.2.3,Win32,120.4819277,,,,,,,,,,,,928.6033,1,928.6033,,,,931.7199,932.2197,931.2114,931.7198,929.6048,270,931.2114,932.2197,932.7197,932.7197,934.5114,1214.5,934.5114,2,935.5136,1,41,95,8,1,1.6,0.3,Time
,,557697,001,1,24,2025-04-23_18h19.09.691,Serial_Dependence_U,2023.2.3,Win32,120.4819277,,,,,,,,,,,,935.5139,1,935.514,,,,937.9223,938.4241,937.414,937.9223,936.5116,254,937.4139,938.4241,938.9218,938.9218,940.0614,799.1,940.0615,2,941.0628,1,42,96,37,1,0.9,0.3,Time
,,557697,001,1,24,2025-04-23_18h19.09.691,Serial_Dependence_U,2023.2.3,Win32,120.4819277,,,,,,,,,,,,941.063,1,941.0631,,,,943.9889,944.4863,943.4781,943.9889,942.0697,67,943.4781,944.4863,944.9863,944.9863,947.1447,1434.6,947.1448,3,948.1446,1,43,97,42,1,1.4,0.3,Time
,,557697,001,1,24,2025-04-23_18h19.09.691,Serial_Dependence_U,2023.2.3,Win32,120.4819277,,,,,,,,,,,,948.1448,1,948.1448,,,,950.5697,951.0696,950.0614,950.5697,949.1532,257,950.0614,951.0696,951.5695,951.5696,952.8031,724.6,952.8032,2,953.8029,1,44,98,10,1,0.9,0.7,Time
,,557697,001,1,24,2025-04-23_18h19.09.691,Serial_Dependence_U,2023.2.3,Win32,120.4819277,,,,,,,,,,,,953.8031,1,953.8031,,,,956.6214,957.1195,956.1197,956.6214,954.814,162,956.1197,957.1196,957.6195,957.6195,959.164,1121,959.164,2,960.1612,1,45,99,41,1,1.3,0.3,Time
,,557697,001,1,24,2025-04-23_18h19.09.691,Serial_Dependence_U,2023.2.3,Win32,120.4819277,,,,,,,,,,,,960.1614,1,960.1615,,,,962.9781,963.4779,962.4722,962.978,961.1639,90,962.4721,963.4779,963.9778,963.9779,965.6195,1065.7,965.6197,2,966.6194,1,46,100,50,1,1.3,0.7,Time
,,557697,001,1,24,2025-04-23_18h19.09.691,Serial_Dependence_U,2023.2.3,Win32,120.4819277,,,,,,,,,,,,966.6196,1,966.6197,,,,969.5363,970.0361,969.0303,969.5362,967.628,13,969.0303,970.0361,970.5361,970.5362,972.628,1403.4,972.628,3,973.6277,1,47,101,51,1,1.4,0.7,Time
,,557697,001,1,24,2025-04-23_18h19.09.691,Serial_Dependence_U,2023.2.3,Win32,120.4819277,,,,,,,,,,,,973.6279,1,973.628,,,,975.953,976.4527,975.4445,975.953,974.6363,162,975.4445,976.4527,976.9528,976.9528,978.0362,471.9,978.0362,1,979.036,1,48,102,9,1,0.8,0.7,Time
,,557697,001,1,24,2025-04-23_18h19.09.691,Serial_Dependence_U,2023.2.3,Win32,120.4819277,,,,,,,,,,,,979.0362,1,979.0363,,,,981.5529,982.0527,981.0494,981.5529,980.0445,324,981.0494,982.0527,982.5527,982.5527,984.0222,947.7,984.0223,2,985.0193,1,49,103,38,1,1,0.3,Time
,,557697,001,1,24,2025-04-23_18h19.09.691,Serial_Dependence_U,2023.2.3,Win32,120.4819277,,,,,,,,,,,,985.0196,1,985.0196,,,,988.1446,988.6444,987.6363,988.1446,986.0303,281,987.6362,988.6444,989.1445,989.1445,990.7862,1110.7,990.7863,1,991.786,1,50,104,17,1,1.6,0.7,Time
,,557697,001,1,24,2025-04-23_18h19.09.691,Serial_Dependence_U,2023.2.3,Win32,120.4819277,,,,,,,,,,,,991.7862,1,991.7863,,,,994.0945,994.5943,993.591,994.0945,992.7886,187,993.5909,994.5943,995.0944,995.0944,996.4111,651.3,996.4113,2,997.411,1,51,105,18,1,0.8,0.3,Time
,,557697,001,1,24,2025-04-23_18h19.09.691,Serial_Dependence_U,2023.2.3,Win32,120.4819277,,,,,,,,,,,,997.4112,1,997.4113,,,,1000.1362,1000.6361,999.6278,1000.1361,998.4196,319,999.6278,1000.6361,1001.1359,1001.136,1002.9278,1223.6,1002.9279,3,1003.9276,1,52,106,13,1,1.2,0.7,Time
,,557697,001,1,24,2025-04-23_18h19.09.691,Serial_Dependence_U,2023.2.3,Win32,120.4819277,,,,,,,,,,,,1003.9278,1,1003.9279,,,,1006.7528,1007.2526,1006.2445,1006.7528,1004.9362,237,1006.2445,1007.2526,1007.7527,1007.7527,1009.3777,1088,1009.3778,2,1010.3776,1,53,107,32,1,1.3,0.7,Time
,,557697,001,1,24,2025-04-23_18h19.09.691,Serial_Dependence_U,2023.2.3,Win32,120.4819277,,,,,,,,,,,,1010.3778,2,1156.8686,s,146.4768,,1159.6937,1160.1959,1159.1879,1159.6937,1157.8799,194,1159.1879,1160.1959,1160.6935,1160.6935,1162.5712,1292.4,1162.5714,3,1163.5685,2,0,108,23,1,1.3,0.3,Time
,,557697,001,1,24,2025-04-23_18h19.09.691,Serial_Dependence_U,2023.2.3,Win32,120.4819277,,,,,,,,,,,,1163.5687,2,1163.5692,,,,1165.9855,1166.4852,1165.4793,1165.9854,1164.5713,35,1165.4793,1166.4852,1166.9792,1166.9792,1168.746,908,1168.746,3,1169.7435,2,1,109,1,1,0.9,0.3,Time
,,557697,001,1,24,2025-04-23_18h19.09.691,Serial_Dependence_U,2023.2.3,Win32,120.4819277,,,,,,,,,,,,1169.7437,2,1169.7437,,,,1172.2687,1172.7685,1171.7604,1172.2687,1170.7546,44,1171.7604,1172.7685,1173.2685,1173.2685,1174.8269,979.4,1174.827,3,1175.8267,2,2,110,38,1,1,0.3,Time
,,557697,001,1,24,2025-04-23_18h19.09.691,Serial_Dependence_U,2023.2.3,Win32,120.4819277,,,,,,,,,,,,1175.8269,2,1175.827,,,,1178.952,1179.4518,1178.4437,1178.952,1176.8353,325,1178.4437,1179.4518,1179.9519,1179.9519,1181.7103,1209.3,1181.7104,2,1182.7102,2,3,111,44,1,1.6,0.3,Time
,,557697,001,1,24,2025-04-23_18h19.09.691,Serial_Dependence_U,2023.2.3,Win32,120.4819277,,,,,,,,,,,,1182.7103,2,1182.7104,,,,1185.8187,1186.3185,1185.3103,1185.8187,1183.7045,46,1185.3102,1186.3185,1186.8184,1186.8184,1188.6019,1206.4,1188.602,2,1189.6018,2,4,112,17,1,1.6,0.7,Time
,,557697,001,1,24,2025-04-23_18h19.09.691,Serial_Dependence_U,2023.2.3,Win32,120.4819277,,,,,,,,,,,,1189.602,2,1189.602,,,,1191.9187,1192.4183,1191.4103,1191.9187,1190.602,220,1191.4103,1192.4183,1192.9184,1192.9184,1194.4703,1062.1,1194.4703,5,1195.4645,2,5,113,18,1,0.8,0.3,Time
,,557697,001,1,24,2025-04-23_18h19.09.691,Serial_Dependence_U,2023.2.3,Win32,120.4819277,,,,,,,,,,,,1195.4648,2,1195.4648,,,,1198.4791,1198.9767,1197.977,1198.4791,1196.4713,149,1197.977,1198.9768,1199.4812,1199.4812,1201.2435,1314.2,1201.2436,2,1202.2455,2,6,114,25,1,1.5,0.3,Time
,,557697,001,1,24,2025-04-23_18h19.09.691,Serial_Dependence_U,2023.2.3,Win32,120.4819277,,,,,,,,,,,,1202.2457,2,1202.2459,,,,1204.8626,1205.36,1204.3519,1204.8626,1203.246,224,1204.3519,1205.36,1205.8601,1205.8601,1207.3852,1025,1207.3853,2,1208.385,2,7,115,48,1,1.1,0.7,Time
,,557697,001,1,24,2025-04-23_18h19.09.691,Serial_Dependence_U,2023.2.3,Win32,120.4819277,,,,,,,,,,,,1208.3852,2,1208.3853,,,,1210.9018,1211.4017,1210.3935,1210.9018,1209.3853,253,1210.3935,1211.4017,1211.9016,1211.9017,1213.2185,854,1213.2186,2,1214.2184,2,8,116,29,1,1,0.7,Time
,,557697,001,1,24,2025-04-23_18h19.09.691,Serial_Dependence_U,2023.2.3,Win32,120.4819277,,,,,,,,,,,,1214.2186,2,1214.2186,,,,1216.8435,1217.3433,1216.3352,1216.8435,1215.2268,123,1216.3352,1217.3433,1217.8433,1217.8433,1219.3185,1001.9,1219.3185,2,1220.3183,2,9,117,21,1,1.1,0.3,Time
,,557697,001,1,24,2025-04-23_18h19.09.691,Serial_Dependence_U,2023.2.3,Win32,120.4819277,,,,,,,,,,,,1220.3185,2,1220.3185,,,,1222.8352,1223.335,1222.3269,1222.8351,1221.3185,124,1222.3268,1223.335,1223.8349,1223.8349,1225.3517,945.9,1225.3517,2,1226.3516,2,10,118,2,1,1,0.3,Time
,,557697,001,1,24,2025-04-23_18h19.09.691,Serial_Dependence_U,2023.2.3,Win32,120.4819277,,,,,,,,,,,,1226.3518,2,1226.3518,,,,1228.6768,1229.1766,1228.1685,1228.6768,1227.3602,158,1228.1684,1229.1766,1229.6766,1229.6767,1230.735,607.2,1230.735,2,1231.7349,2,11,119,0,1,0.8,0.3,Time
,,557697,001,1,24,2025-04-23_18h19.09.691,Serial_Dependence_U,2023.2.3,Win32,120.4819277,,,,,,,,,,,,1231.7352,2,1231.7352,,,,1234.3601,1234.8599,1233.8517,1234.3601,1232.7435,167,1233.8517,1234.86,1235.3599,1235.36,1236.7518,801.6,1236.7518,2,1237.7516,2,12,120,39,1,1.1,0.3,Time
,,557697,001,1,24,2025-04-23_18h19.09.691,Serial_Dependence_U,2023.2.3,Win32,120.4819277,,,,,,,,,,,,1237.7517,2,1237.7518,,,,1240.6684,1241.1682,1240.16,1240.6684,1238.7518,2,1240.16,1241.1682,1241.6682,1241.6682,1243.4433,1081.8,1243.4434,2,1244.4432,2,13,121,15,1,1.4,0.7,Time
,,557697,001,1,24,2025-04-23_18h19.09.691,Serial_Dependence_U,2023.2.3,Win32,120.4819277,,,,,,,,,,,,1244.4434,2,1244.4435,,,,1247.1683,1247.6682,1246.66,1247.1683,1245.4518,50,1246.6599,1247.6682,1248.1682,1248.1682,1249.8767,1108,1249.8767,2,1250.8765,2,14,122,40,1,1.2,0.3,Time
,,557697,001,1,24,2025-04-23_18h19.09.691,Serial_Dependence_U,2023.2.3,Win32,120.4819277,,,,,,,,,,,,1250.8767,2,1250.8768,,,,1253.9017,1254.4037,1253.3934,1253.9016,1251.885,125,1253.3933,1254.4037,1254.9015,1254.9015,1256.8433,1236.8,1256.8433,2,1257.8431,2,15,123,52,1,1.5,0.7,Time
,,557697,001,1,24,2025-04-23_18h19.09.691,Serial_Dependence_U,2023.2.3,Win32,120.4819277,,,,,,,,,,,,1257.8434,2,1257.8435,,,,1260.3683,1260.8681,1259.86,1260.3683,1258.8549,59,1259.86,1260.8681,1261.3681,1261.3682,1263.01,1036.1,1263.01,3,1264.0098,2,16,124,20,1,1,0.3,Time
,,557697,001,1,24,2025-04-23_18h19.09.691,Serial_Dependence_U,2023.2.3,Win32,120.4819277,,,,,,,,,,,,1264.01,2,1264.01,,,,1266.935,1267.4347,1266.4266,1266.9349,1265.0183,57,1266.4266,1267.4347,1267.9347,1267.9347,1269.7765,1136.2,1269.7766,2,1270.7785,2,17,125,42,1,1.4,0.3,Time
,,557697,001,1,24,2025-04-23_18h19.09.691,Serial_Dependence_U,2023.2.3,Win32,120.4819277,,,,,,,,,,,,1270.7787,2,1270.7788,,,,1273.4933,1273.9931,1272.9873,1273.4932,1271.7792,1,1272.9873,1273.9931,1274.493,1274.4931,1276.4873,1366.4,1276.4873,4,1277.4847,2,18,126,22,1,1.2,0.3,Time
,,557697,001,1,24,2025-04-23_18h19.09.691,Serial_Dependence_U,2023.2.3,Win32,120.4819277,,,,,,,,,,,,1277.4849,2,1277.4849,,,,1280.6015,1281.1014,1280.0956,1280.6015,1278.4932,353,1280.0956,1281.1014,1281.6014,1281.6014,1283.6124,1295.8,1283.6124,2,1284.6097,2,19,127,26,1,1.6,0.3,Time
,,557697,001,1,24,2025-04-23_18h19.09.691,Serial_Dependence_U,2023.2.3,Win32,120.4819277,,,,,,,,,,,,1284.6099,2,1284.6099,,,,1287.5374,1288.0347,1287.0288,1287.5373,1285.6182,244,1287.0288,1288.0347,1288.5347,1288.5347,1290.3681,1294,1290.3682,2,1291.368,2,20,128,24,1,1.4,0.3,Time
,,557697,001,1,24,2025-04-23_18h19.09.691,Serial_Dependence_U,2023.2.3,Win32,120.4819277,,,,,,,,,,,,1291.3681,2,1291.3683,,,,1293.9849,1294.4846,1293.4765,1293.9849,1292.3682,13,1293.4764,1294.4846,1294.9846,1294.9846,1296.568,1138,1296.5681,3,1297.5702,2,21,129,3,1,1.1,0.3,Time
,,557697,001,1,24,2025-04-23_18h19.09.691,Serial_Dependence_U,2023.2.3,Win32,120.4819277,,,,,,,,,,,,1297.5703,2,1297.5704,,,,1300.0955,1300.5951,1299.5864,1300.0955,1298.5765,99,1299.5863,1300.5951,1301.0929,1301.0929,1302.818,1130.1,1302.8181,4,1303.8179,2,22,130,11,1,1,0.7,Time
,,557697,001,1,24,2025-04-23_18h19.09.691,Serial_Dependence_U,2023.2.3,Win32,120.4819277,,,,,,,,,,,,1303.8181,2,1303.8183,,,,1306.9289,1307.4261,1306.4264,1306.9289,1304.8181,300,1306.4264,1307.4261,1307.9285,1307.9285,1310.1013,1509.2,1310.1015,2,1311.1012,2,23,131,8,1,1.6,0.3,Time
,,557697,001,1,24,2025-04-23_18h19.09.691,Serial_Dependence_U,2023.2.3,Win32,120.4819277,,,,,,,,,,,,1311.1014,2,1311.1015,,,,1314.129,1314.6263,1313.6181,1314.1289,1312.1098,329,1313.618,1314.6263,1315.1262,1315.1262,1316.9123,1239.4,1316.9124,2,1317.9095,2,24,132,34,1,1.5,0.7,Time
,,557697,001,1,24,2025-04-23_18h19.09.691,Serial_Dependence_U,2023.2.3,Win32,120.4819277,,,,,,,,,,,,1317.9097,2,1317.9097,,,,1320.7205,1321.2178,1320.218,1320.7205,1318.9122,345,1320.218,1321.2179,1321.7178,1321.7178,1323.343,1077.9,1323.343,2,1324.3368,2,25,133,32,1,1.3,0.7,Time
,,557697,001,1,24,2025-04-23_18h19.09.691,Serial_Dependence_U,2023.2.3,Win32,120.4819277,,,,,,,,,,,,1324.337,2,1324.3371,,,,1326.7455,1327.2428,1326.243,1326.7454,1325.3372,5,1326.243,1327.2428,1327.745,1327.745,1329.0013,630.9,1329.0014,2,1329.9974,2,26,134,28,1,0.9,0.7,Time
,,557697,001,1,24,2025-04-23_18h19.09.691,Serial_Dependence_U,2023.2.3,Win32,120.4819277,,,,,,,,,,,,1329.9975,2,1329.9976,,,,1332.5039,1333.0033,1332.0014,1332.5039,1330.9955,163,1332.0013,1333.0033,1333.5012,1333.5012,1335.2845,1158.7,1335.2847,4,1336.2805,2,27,135,47,1,1,0.7,Time
,,557697,001,1,24,2025-04-23_18h19.09.691,Serial_Dependence_U,2023.2.3,Win32,120.4819277,,,,,,,,,,,,1336.2807,2,1336.2807,,,,1338.9954,1339.4928,1338.487,1338.9954,1337.2846,181,1338.487,1339.4928,1339.995,1339.995,1341.8345,1188.9,1341.8346,3,1342.8344,2,28,136,4,1,1.2,0.3,Time
,,557697,001,1,24,2025-04-23_18h19.09.691,Serial_Dependence_U,2023.2.3,Win32,120.4819277,,,,,,,,,,,,1342.8346,2,1342.8347,,,,1345.1538,1345.651,1344.6512,1345.1537,1343.8454,354,1344.6512,1345.651,1346.1511,1346.1511,1347.403,715.8,1347.4031,2,1348.401,2,29,137,27,1,0.8,0.7,Time
,,557697,001,1,24,2025-04-23_18h19.09.691,Serial_Dependence_U,2023.2.3,Win32,120.4819277,,,,,,,,,,,,1348.4013,2,1348.4013,,,,1351.2179,1351.7176,1350.7144,1351.2179,1349.4096,87,1350.7144,1351.7176,1352.2177,1352.2177,1353.8844,1101.8,1353.8845,2,1354.8843,2,30,138,14,1,1.3,0.7,Time
,,557697,001,1,24,2025-04-23_18h19.09.691,Serial_Dependence_U,2023.2.3,Win32,120.4819277,,,,,,,,,,,,1354.8846,2,1354.8847,,,,1357.2096,1357.7093,1356.7013,1357.2095,1355.8929,313,1356.7012,1357.7093,1358.2093,1358.2094,1359.7844,884.6,1359.7845,4,1360.7866,2,31,139,9,1,0.8,0.7,Time
,,557697,001,1,24,2025-04-23_18h19.09.691,Serial_Dependence_U,2023.2.3,Win32,120.4819277,,,,,,,,,,,,1360.7867,2,1360.7868,,,,1363.2111,1363.7092,1362.7012,1363.2111,1361.7953,296,1362.7012,1363.7092,1364.2093,1364.2093,1365.8177,907.9,1365.8178,3,1366.8176,2,32,140,37,1,0.9,0.3,Time
,,557697,001,1,24,2025-04-23_18h19.09.691,Serial_Dependence_U,2023.2.3,Win32,120.4819277,,,,,,,,,,,,1366.8178,2,1366.8179,,,,1369.5369,1370.0342,1369.0285,1369.5369,1367.8206,196,1369.0284,1370.0342,1370.5343,1370.5343,1371.7761,1164.1,1371.7761,3,1372.7759,2,33,141,31,1,1.2,0.7,Time
,,557697,001,1,24,2025-04-23_18h19.09.691,Serial_Dependence_U,2023.2.3,Win32,120.4819277,,,,,,,,,,,,1372.7762,2,1372.7763,,,,1375.0892,1375.5866,1374.5869,1375.0892,1373.7845,266,1374.5869,1375.5866,1376.0842,1376.0843,1377.1927,744.3,1377.1927,2,1378.1926,2,34,142,36,1,0.8,0.3,Time
,,557697,001,1,24,2025-04-23_18h19.09.691,Serial_Dependence_U,2023.2.3,Win32,120.4819277,,,,,,,,,,,,1378.1929,2,1378.1929,,,,1381.1177,1381.6175,1380.6094,1381.1177,1379.2035,39,1380.6093,1381.6176,1382.1176,1382.1176,1383.5953,1044.4,1383.5954,2,1384.5925,2,35,143,51,1,1.4,0.7,Time
,,557697,001,1,24,2025-04-23_18h19.09.691,Serial_Dependence_U,2023.2.3,Win32,120.4819277,,,,,,,,,,,,1384.5928,2,1384.5928,,,,1387.2177,1387.7175,1386.7095,1387.2177,1385.6011,164,1386.7094,1387.7175,1388.2175,1388.2175,1389.8509,1027.8,1389.851,2,1390.8509,2,36,144,30,1,1.1,0.7,Time
,,557697,001,1,24,2025-04-23_18h19.09.691,Serial_Dependence_U,2023.2.3,Win32,120.4819277,,,,,,,,,,,,1390.851,2,1390.8511,,,,1393.576,1394.0759,1393.0677,1393.576,1391.8594,287,1393.0677,1394.0759,1394.5759,1394.5759,1396.4176,1272.4,1396.4178,4,1397.4175,2,37,145,49,1,1.2,0.7,Time
,,557697,001,1,24,2025-04-23_18h19.09.691,Serial_Dependence_U,2023.2.3,Win32,120.4819277,,,,,,,,,,,,1397.4177,2,1397.4178,,,,1400.2427,1400.7425,1399.7344,1400.2427,1398.426,86,1399.7343,1400.7425,1401.2425,1401.2425,1402.801,1050.5,1402.801,2,1403.8009,2,38,146,50,1,1.3,0.7,Time
,,557697,001,1,24,2025-04-23_18h19.09.691,Serial_Dependence_U,2023.2.3,Win32,120.4819277,,,,,,,,,,,,1403.801,2,1403.8011,,,,1406.8176,1407.3174,1406.3094,1406.8176,1404.801,291,1406.3093,1407.3174,1407.8174,1407.8175,1409.8675,1282.4,1409.8676,2,1410.8675,2,39,147,43,1,1.5,0.3,Time
,,557697,001,1,24,2025-04-23_18h19.09.691,Serial_Dependence_U,2023.2.3,Win32,120.4819277,,,,,,,,,,,,1410.8676,2,1410.8677,,,,1413.8927,1414.3924,1413.3843,1413.8926,1411.8759,274,1413.3842,1414.3924,1414.8924,1414.8924,1416.7342,1362.7,1416.7343,2,1417.734,2,40,148,16,1,1.5,0.7,Time
,,557697,001,1,24,2025-04-23_18h19.09.691,Serial_Dependence_U,2023.2.3,Win32,120.4819277,,,,,,,,,,,,1417.7342,2,1417.7343,,,,1420.4592,1420.9589,1419.951,1420.4591,1418.7426,322,1419.9509,1420.9591,1421.4591,1421.4591,1423.6258,1404.8,1423.6259,4,1424.6257,2,41,149,13,1,1.2,0.7,Time
,,557697,001,1,24,2025-04-23_18h19.09.691,Serial_Dependence_U,2023.2.3,Win32,120.4819277,,,,,,,,,,,,1424.6259,2,1424.6259,,,,1427.6509,1428.1506,1427.1425,1427.6509,1425.6342,170,1427.1425,1428.1506,1428.6507,1428.6507,1430.5175,1143.8,1430.5175,2,1431.5174,2,42,150,7,1,1.5,0.3,Time
,,557697,001,1,24,2025-04-23_18h19.09.691,Serial_Dependence_U,2023.2.3,Win32,120.4819277,,,,,,,,,,,,1431.5175,2,1431.5177,,,,1434.4366,1434.934,1433.9342,1434.4365,1432.5258,77,1433.9342,1434.934,1435.4355,1435.4356,1437.4367,1441.6,1437.4368,3,1438.4362,2,43,151,33,1,1.4,0.7,Time
,,557697,001,1,24,2025-04-23_18h19.09.691,Serial_Dependence_U,2023.2.3,Win32,120.4819277,,,,,,,,,,,,1438.4364,2,1438.4365,,,,1441.2616,1441.7612,1440.7534,1441.2616,1439.4425,342,1440.7534,1441.7612,1442.259,1442.259,1443.87,1308.4,1443.8701,3,1444.8674,2,44,152,41,1,1.3,0.3,Time
,,557697,001,1,24,2025-04-23_18h19.09.691,Serial_Dependence_U,2023.2.3,Win32,120.4819277,,,,,,,,,,,,1444.8676,2,1444.8676,,,,1447.2874,1447.7839,1446.7841,1447.2874,1445.8783,254,1446.7841,1447.7839,1448.2839,1448.2839,1450.2614,1241.3,1450.2614,5,1451.2589,2,45,153,10,1,0.9,0.7,Time
,,557697,001,1,24,2025-04-23_18h19.09.691,Serial_Dependence_U,2023.2.3,Win32,120.4819277,,,,,,,,,,,,1451.2591,2,1451.2591,,,,1454.1674,1454.6672,1453.6616,1454.1674,1452.2534,332,1453.6616,1454.6672,1455.1611,1455.1611,1456.5174,1062.2,1456.5175,2,1457.5172,2,46,154,6,1,1.4,0.3,Time
,,557697,001,1,24,2025-04-23_18h19.09.691,Serial_Dependence_U,2023.2.3,Win32,120.4819277,,,,,,,,,,,,1457.5174,2,1457.5174,,,,1460.6341,1461.136,1460.1282,1460.634,1458.5258,185,1460.1282,1461.136,1461.6383,1461.6383,1463.6007,1374.1,1463.6008,2,1464.6005,2,47,155,35,1,1.6,0.7,Time
,,557697,001,1,24,2025-04-23_18h19.09.691,Serial_Dependence_U,2023.2.3,Win32,120.4819277,,,,,,,,,,,,1464.6007,2,1464.6008,,,,1467.0257,1467.5254,1466.5173,1467.0257,1465.6091,350,1466.5173,1467.5254,1468.0255,1468.0255,1469.734,1121.3,1469.7341,4,1470.7338,2,48,156,19,1,0.9,0.3,Time
,,557697,001,1,24,2025-04-23_18h19.09.691,Serial_Dependence_U,2023.2.3,Win32,120.4819277,,,,,,,,,,,,1470.734,2,1470.7341,,,,1473.8589,1474.3587,1473.3507,1473.8589,1471.7424,24,1473.3506,1474.3587,1474.8588,1474.8588,1476.6589,1219.7,1476.659,2,1477.6588,2,49,157,53,1,1.6,0.7,Time
,,557697,001,1,24,2025-04-23_18h19.09.691,Serial_Dependence_U,2023.2.3,Win32,120.4819277,,,,,,,,,,,,1477.659,2,1477.6591,,,,1480.4774,1480.9755,1479.9697,1480.4774,1478.6695,241,1479.9697,1480.9755,1481.4693,1481.4694,1483.1289,1208.8,1483.129,2,1484.1254,2,50,158,5,1,1.3,0.3,Time
,,557697,001,1,24,2025-04-23_18h19.09.691,Serial_Dependence_U,2023.2.3,Win32,120.4819277,,,,,,,,,,,,1484.1256,2,1484.1257,,,,1486.4507,1486.9504,1485.9423,1486.4506,1485.1339,258,1485.9423,1486.9504,1487.4504,1487.4504,1488.9004,809.4,1488.9005,3,1489.9004,2,51,159,45,1,0.8,0.7,Time
,,557697,001,1,24,2025-04-23_18h19.09.691,Serial_Dependence_U,2023.2.3,Win32,120.4819277,,,,,,,,,,,,1489.9006,2,1489.9007,,,,1492.3173,1492.817,1491.8089,1492.3173,1490.9005,15,1491.8089,1492.817,1493.317,1493.317,1494.8115,858.3,1494.8116,3,1495.8087,2,52,160,46,1,0.9,0.7,Time
,,557697,001,1,24,2025-04-23_18h19.09.691,Serial_Dependence_U,2023.2.3,Win32,120.4819277,,,,,,,,,,,,1495.8089,2,1495.809,,,,1498.4256,1498.9275,1497.9197,1498.4255,1496.8172,161,1497.9196,1498.9275,1499.4253,1499.4253,1500.8199,800.9,1500.82,2,1501.8171,2,53,161,12,1,1.1,0.7,Time
,,557697,001,1,24,2025-04-23_18h19.09.691,Serial_Dependence_U,2023.2.3,Win32,120.4819277,,,,,,,,,,,,1501.8173,3,1584.0964,s,82.2682,,1586.6001,1587.0999,1586.0966,1586.6,1585.0943,65,1586.0966,1587.0999,1587.6,1587.6,1588.2751,196.7,1588.2752,1,1589.2749,3,0,162,20,1,1,0.3,Time
,,557697,001,1,24,2025-04-23_18h19.09.691,Serial_Dependence_U,2023.2.3,Win32,120.4819277,,,,,,,,,,,,1589.2751,3,1589.2757,,,,1592.0883,1592.5832,1591.5834,1592.0883,1590.2751,176,1591.5834,1592.5832,1593.0832,1593.0833,1594.975,1190.9,1594.9751,2,1595.975,3,1,163,14,1,1.3,0.7,Time
,,557697,001,1,24,2025-04-23_18h19.09.691,Serial_Dependence_U,2023.2.3,Win32,120.4819277,,,,,,,,,,,,1595.9751,3,1595.9752,,,,1598.8835,1599.3854,1598.3799,1598.8834,1596.9774,279,1598.3799,1599.3855,1599.8854,1599.8854,1601.5442,1136,1601.5443,2,1602.5415,3,2,164,51,1,1.4,0.7,Time
,,557697,001,1,24,2025-04-23_18h19.09.691,Serial_Dependence_U,2023.2.3,Win32,120.4819277,,,,,,,,,,,,1602.5417,3,1602.5418,,,,1604.9584,1605.4582,1604.4549,1604.9583,1603.5442,91,1604.4549,1605.4582,1605.9582,1605.9582,1607.5666,1059.8,1607.5667,4,1608.5665,3,3,165,19,1,0.9,0.3,Time
,,557697,001,1,24,2025-04-23_18h19.09.691,Serial_Dependence_U,2023.2.3,Win32,120.4819277,,,,,,,,,,,,1608.5667,3,1608.5667,,,,1611.5859,1612.0832,1611.075,1611.5857,1609.5692,37,1611.075,1612.0832,1612.5831,1612.5832,1614.3249,1277.4,1614.325,2,1615.3188,3,4,166,52,1,1.5,0.7,Time
,,557697,001,1,24,2025-04-23_18h19.09.691,Serial_Dependence_U,2023.2.3,Win32,120.4819277,,,,,,,,,,,,1615.319,3,1615.319,,,,1617.6416,1618.1436,1617.135,1617.6416,1616.325,106,1617.135,1618.1436,1618.6436,1618.6436,1620.3915,983.2,1620.3915,4,1621.3854,3,5,167,0,1,0.8,0.3,Time
,,557697,001,1,24,2025-04-23_18h19.09.691,Serial_Dependence_U,2023.2.3,Win32,120.4819277,,,,,,,,,,,,1621.3856,3,1621.3856,,,,1624.2025,1624.6998,1623.6916,1624.2025,1622.3834,247,1623.6916,1624.6998,1625.1998,1625.1998,1627.0916,1168.7,1627.0917,2,1628.0935,3,6,168,41,1,1.3,0.3,Time
,,557697,001,1,24,2025-04-23_18h19.09.691,Serial_Dependence_U,2023.2.3,Win32,120.4819277,,,,,,,,,,,,1628.0938,3,1628.0938,,,,1631.0166,1631.5209,1630.5108,1631.0166,1629.1024,185,1630.5107,1631.5209,1632.0186,1632.0186,1633.5366,1129.8,1633.5366,2,1634.5353,3,7,169,42,1,1.4,0.3,Time
,,557697,001,1,24,2025-04-23_18h19.09.691,Serial_Dependence_U,2023.2.3,Win32,120.4819277,,,,,,,,,,,,1634.5355,3,1634.5356,,,,1636.95,1637.4497,1636.4416,1636.95,1635.5377,167,1636.4416,1637.4498,1637.9498,1637.9498,1639.2248,833.7,1639.2249,2,1640.2247,3,8,170,28,1,0.9,0.7,Time
,,557697,001,1,24,2025-04-23_18h19.09.691,Serial_Dependence_U,2023.2.3,Win32,120.4819277,,,,,,,,,,,,1640.2249,3,1640.2249,,,,1643.1499,1643.6496,1642.6416,1643.1499,1641.2332,33,1642.6415,1643.6497,1644.1497,1644.1497,1645.6914,1016.8,1645.6915,2,1646.6914,3,9,171,24,1,1.4,0.3,Time
,,557697,001,1,24,2025-04-23_18h19.09.691,Serial_Dependence_U,2023.2.3,Win32,120.4819277,,,,,,,,,,,,1646.6915,3,1646.6917,,,,1649.4165,1649.9163,1648.9081,1649.4165,1647.6998,303,1648.9081,1649.9163,1650.4164,1650.4164,1652.1165,1091.8,1652.1166,2,1653.1163,3,10,172,13,1,1.2,0.7,Time
,,557697,001,1,24,2025-04-23_18h19.09.691,Serial_Dependence_U,2023.2.3,Win32,120.4819277,,,,,,,,,,,,1653.1165,3,1653.1166,,,,1656.1415,1656.6413,1655.6331,1656.1415,1654.1248,174,1655.6331,1656.6413,1657.1413,1657.1413,1658.9748,1248.1,1658.9748,2,1659.9746,3,11,173,25,1,1.5,0.3,Time
,,557697,001,1,24,2025-04-23_18h19.09.691,Serial_Dependence_U,2023.2.3,Win32,120.4819277,,,,,,,,,,,,1659.9748,3,1659.9749,,,,1662.8998,1663.3995,1662.3915,1662.8998,1660.9831,179,1662.3914,1663.3995,1663.8995,1663.8996,1665.8497,1398.1,1665.8497,3,1666.8496,3,12,174,6,1,1.4,0.3,Time
,,557697,001,1,24,2025-04-23_18h19.09.691,Serial_Dependence_U,2023.2.3,Win32,120.4819277,,,,,,,,,,,,1666.8498,3,1666.8498,,,,1669.6686,1670.1684,1669.1606,1669.6686,1667.8514,142,1669.1605,1670.1684,1670.6663,1670.6663,1672.608,1402,1672.608,4,1673.6101,3,13,175,5,1,1.3,0.3,Time
,,557697,001,1,24,2025-04-23_18h19.09.691,Serial_Dependence_U,2023.2.3,Win32,120.4819277,,,,,,,,,,,,1673.6103,3,1673.6104,,,,1675.9248,1676.4245,1675.4164,1675.9248,1674.6105,42,1675.4163,1676.4245,1676.9206,1676.9206,1678.9997,1317,1678.9998,5,1679.9995,3,14,176,9,1,0.8,0.7,Time
,,557697,001,1,24,2025-04-23_18h19.09.691,Serial_Dependence_U,2023.2.3,Win32,120.4819277,,,,,,,,,,,,1679.9997,3,1679.9998,,,,1683.1165,1683.6162,1682.6081,1683.1164,1680.9997,273,1682.608,1683.6162,1684.1161,1684.1161,1685.883,1252,1685.8831,2,1686.8828,3,15,177,8,1,1.6,0.3,Time
,,557697,001,1,24,2025-04-23_18h19.09.691,Serial_Dependence_U,2023.2.3,Win32,120.4819277,,,,,,,,,,,,1686.883,3,1686.883,,,,1689.308,1689.8078,1688.7997,1689.308,1687.8913,165,1688.7997,1689.8078,1690.3078,1690.3078,1691.8996,945.3,1691.8996,4,1692.8994,3,16,178,10,1,0.9,0.7,Time
,,557697,001,1,24,2025-04-23_18h19.09.691,Serial_Dependence_U,2023.2.3,Win32,120.4819277,,,,,,,,,,,,1692.8997,3,1692.8997,,,,1695.5247,1696.0244,1695.0163,1695.5246,1693.908,270,1695.0163,1696.0244,1696.5244,1696.5244,1698.0995,1131.5,1698.0996,3,1699.0995,3,17,179,3,1,1.1,0.3,Time
,,557697,001,1,24,2025-04-23_18h19.09.691,Serial_Dependence_U,2023.2.3,Win32,120.4819277,,,,,,,,,,,,1699.0996,3,1699.0997,,,,1702.2246,1702.7244,1701.7163,1702.2246,1700.108,151,1701.7162,1702.7244,1703.2244,1703.2244,1704.8745,1185.1,1704.8746,2,1705.8744,3,18,180,35,1,1.6,0.7,Time
,,557697,001,1,24,2025-04-23_18h19.09.691,Serial_Dependence_U,2023.2.3,Win32,120.4819277,,,,,,,,,,,,1705.8745,3,1705.8747,,,,1708.8995,1709.3994,1708.3912,1708.8995,1706.8829,343,1708.3912,1709.3994,1709.8994,1709.8994,1711.8328,1475.1,1711.8329,3,1712.8349,3,19,181,16,1,1.5,0.7,Time
,,557697,001,1,24,2025-04-23_18h19.09.691,Serial_Dependence_U,2023.2.3,Win32,120.4819277,,,,,,,,,,,,1712.8351,3,1712.8352,,,,1715.1521,1715.6494,1714.6413,1715.152,1713.8354,282,1714.6413,1715.6494,1716.1492,1716.1492,1717.3995,809.5,1717.3995,3,1718.3993,3,20,182,27,1,0.8,0.7,Time
,,557697,001,1,24,2025-04-23_18h19.09.691,Serial_Dependence_U,2023.2.3,Win32,120.4819277,,,,,,,,,,,,1718.3995,3,1718.3996,,,,1720.9246,1721.4243,1720.4162,1720.9245,1719.4079,191,1720.4162,1721.4243,1721.9243,1721.9243,1723.0578,1113.3,1723.0578,4,1724.0576,3,21,183,47,1,1,0.7,Time
,,557697,001,1,24,2025-04-23_18h19.09.691,Serial_Dependence_U,2023.2.3,Win32,120.4819277,,,,,,,,,,,,1724.0578,3,1724.0579,,,,1726.3769,1726.8765,1725.8744,1726.3769,1725.0662,249,1725.8744,1726.8765,1727.3742,1727.3742,1728.2577,800.7,1728.2578,3,1729.2576,3,22,184,45,1,0.8,0.7,Time
,,557697,001,1,24,2025-04-23_18h19.09.691,Serial_Dependence_U,2023.2.3,Win32,120.4819277,,,,,,,,,,,,1729.2578,3,1729.2579,,,,1732.0828,1732.5826,1731.5745,1732.0828,1730.2661,111,1731.5745,1732.5827,1733.0826,1733.0826,1734.7518,1080.1,1734.7519,2,1735.7492,3,23,185,23,1,1.3,0.3,Time
,,557697,001,1,24,2025-04-23_18h19.09.691,Serial_Dependence_U,2023.2.3,Win32,120.4819277,,,,,,,,,,,,1735.7494,3,1735.7495,,,,1738.7686,1739.2659,1738.2578,1738.7686,1736.7518,320,1738.2577,1739.2659,1739.7681,1739.7681,1741.3577,1062.3,1741.3578,2,1742.3576,3,24,186,7,1,1.5,0.3,Time
,,557697,001,1,24,2025-04-23_18h19.09.691,Serial_Dependence_U,2023.2.3,Win32,120.4819277,,,,,,,,,,,,1742.3578,3,1742.3579,,,,1744.7661,1745.266,1744.2626,1744.7661,1743.3603,117,1744.2625,1745.266,1745.7659,1745.7659,1747.3992,939.4,1747.3993,3,1748.3992,3,25,187,46,1,0.9,0.7,Time
,,557697,001,1,24,2025-04-23_18h19.09.691,Serial_Dependence_U,2023.2.3,Win32,120.4819277,,,,,,,,,,,,1748.3994,3,1748.3995,,,,1750.9161,1751.4159,1750.4078,1750.9161,1749.3994,77,1750.4077,1751.4159,1751.9159,1751.9159,1753.4244,957.4,1753.4244,3,1754.4242,3,26,188,11,1,1,0.7,Time
,,557697,001,1,24,2025-04-23_18h19.09.691,Serial_Dependence_U,2023.2.3,Win32,120.4819277,,,,,,,,,,,,1754.4244,3,1754.4245,,,,1757.0494,1757.5492,1756.541,1757.0493,1755.4327,331,1756.541,1757.5492,1758.0491,1758.0492,1759.5743,1010.5,1759.5743,2,1760.5763,3,27,189,48,1,1.1,0.7,Time
,,557697,001,1,24,2025-04-23_18h19.09.691,Serial_Dependence_U,2023.2.3,Win32,120.4819277,,,,,,,,,,,,1760.5764,3,1760.5765,,,,1763.2926,1763.7908,1762.7852,1763.2926,1761.576,222,1762.7851,1763.7908,1764.2952,1764.2952,1766.3575,1367.4,1766.3576,4,1767.3575,3,28,190,31,1,1.2,0.7,Time
,,557697,001,1,24,2025-04-23_18h19.09.691,Serial_Dependence_U,2023.2.3,Win32,120.4819277,,,,,,,,,,,,1767.3577,3,1767.3578,,,,1769.8827,1770.3824,1769.3743,1769.8826,1768.366,147,1769.3743,1770.3824,1770.8824,1770.8824,1772.9242,1299.2,1772.9243,4,1773.9241,3,29,191,29,1,1,0.7,Time
,,557697,001,1,24,2025-04-23_18h19.09.691,Serial_Dependence_U,2023.2.3,Win32,120.4819277,,,,,,,,,,,,1773.9242,3,1773.9244,,,,1776.5493,1777.049,1776.0409,1776.5492,1774.9326,199,1776.0409,1777.049,1777.549,1777.5491,1778.9409,880.8,1778.9409,2,1779.9407,3,30,192,12,1,1.1,0.7,Time
,,557697,001,1,24,2025-04-23_18h19.09.691,Serial_Dependence_U,2023.2.3,Win32,120.4819277,,,,,,,,,,,,1779.941,3,1779.941,,,,1782.6659,1783.1657,1782.1575,1782.6659,1780.9493,219,1782.1575,1783.1657,1783.6657,1783.6657,1785.4908,1314.2,1785.4909,4,1786.4907,3,31,193,4,1,1.2,0.3,Time
,,557697,001,1,24,2025-04-23_18h19.09.691,Serial_Dependence_U,2023.2.3,Win32,120.4819277,,,,,,,,,,,,1786.4909,3,1786.4909,,,,1789.3184,1789.8156,1788.8076,1789.3184,1787.5017,305,1788.8075,1789.8157,1790.3179,1790.318,1792.0824,1190.5,1792.0825,2,1793.0822,3,32,194,32,1,1.3,0.7,Time
,,557697,001,1,24,2025-04-23_18h19.09.691,Serial_Dependence_U,2023.2.3,Win32,120.4819277,,,,,,,,,,,,1793.0825,3,1793.0825,,,,1795.5157,1796.0156,1795.0076,1795.5157,1794.1011,187,1795.0075,1796.0156,1796.5157,1796.5157,1798.4574,1278.5,1798.4575,5,1799.4594,3,33,195,1,1,0.9,0.3,Time
,,557697,001,1,24,2025-04-23_18h19.09.691,Serial_Dependence_U,2023.2.3,Win32,120.4819277,,,,,,,,,,,,1799.4597,3,1799.4597,,,,1801.7766,1802.274,1801.2683,1801.7766,1800.4659,315,1801.2682,1802.274,1802.7738,1802.7739,1803.4908,583.2,1803.4909,2,1804.4907,3,34,196,36,1,0.8,0.3,Time
,,557697,001,1,24,2025-04-23_18h19.09.691,Serial_Dependence_U,2023.2.3,Win32,120.4819277,,,,,,,,,,,,1804.4908,3,1804.4909,,,,1807.5158,1808.0155,1807.0074,1807.5158,1805.4991,218,1807.0074,1808.0155,1808.5155,1808.5156,1810.649,1192.8,1810.6491,2,1811.6489,3,35,197,43,1,1.5,0.3,Time
,,557697,001,1,24,2025-04-23_18h19.09.691,Serial_Dependence_U,2023.2.3,Win32,120.4819277,,,,,,,,,,,,1811.6492,3,1811.6493,,,,1814.4656,1814.9656,1813.9574,1814.4656,1812.6491,146,1813.9574,1814.9656,1815.4656,1815.4656,1817.4741,1352,1817.4741,3,1818.4738,3,36,198,50,1,1.3,0.7,Time
,,557697,001,1,24,2025-04-23_18h19.09.691,Serial_Dependence_U,2023.2.3,Win32,120.4819277,,,,,,,,,,,,1818.4741,3,1818.4742,,,,1821.5908,1822.0905,1821.085,1821.5907,1819.4765,162,1821.085,1822.0906,1822.5905,1822.5905,1824.5431,1412.4,1824.5433,2,1825.5406,3,37,199,26,1,1.6,0.3,Time
,,557697,001,1,24,2025-04-23_18h19.09.691,Serial_Dependence_U,2023.2.3,Win32,120.4819277,,,,,,,,,,,,1825.5407,3,1825.5408,,,,1827.8574,1828.3571,1827.349,1827.8574,1826.5407,206,1827.3489,1828.3572,1828.8571,1828.8572,1830.4489,1074,1830.449,5,1831.4511,3,38,200,18,1,0.8,0.3,Time
,,557697,001,1,24,2025-04-23_18h19.09.691,Serial_Dependence_U,2023.2.3,Win32,120.4819277,,,,,,,,,,,,1831.4513,3,1831.4513,,,,1834.1739,1834.6738,1833.6657,1834.1739,1832.4588,93,1833.6657,1834.6738,1835.1738,1835.1738,1836.7016,986.9,1836.7017,2,1837.7009,3,39,201,22,1,1.2,0.3,Time
,,557697,001,1,24,2025-04-23_18h19.09.691,Serial_Dependence_U,2023.2.3,Win32,120.4819277,,,,,,,,,,,,1837.7011,3,1837.7011,,,,1840.3157,1840.8155,1839.8073,1840.3156,1838.7016,80,1839.8073,1840.8155,1841.3154,1841.3154,1842.9488,953.9,1842.949,2,1843.9487,3,40,202,21,1,1.1,0.3,Time
,,557697,001,1,24,2025-04-23_18h19.09.691,Serial_Dependence_U,2023.2.3,Win32,120.4819277,,,,,,,,,,,,1843.9489,3,1843.949,,,,1847.0739,1847.5738,1846.5656,1847.0739,1844.9572,284,1846.5655,1847.5738,1848.0737,1848.0737,1849.5655,990.3,1849.5656,1,1850.5654,3,41,203,53,1,1.6,0.7,Time
,,557697,001,1,24,2025-04-23_18h19.09.691,Serial_Dependence_U,2023.2.3,Win32,120.4819277,,,,,,,,,,,,1850.5655,3,1850.5656,,,,1853.5906,1854.0904,1853.0822,1853.5906,1851.574,87,1853.0822,1854.0904,1854.5926,1854.5926,1856.5238,1194.2,1856.5239,2,1857.526,3,42,204,34,1,1.5,0.7,Time
,,557697,001,1,24,2025-04-23_18h19.09.691,Serial_Dependence_U,2023.2.3,Win32,120.4819277,,,,,,,,,,,,1857.5262,3,1857.5262,,,,1860.0505,1860.5487,1859.543,1860.0505,1858.5322,332,1859.543,1860.5487,1861.051,1861.0511,1862.6513,998.5,1862.6515,3,1863.6509,3,43,205,2,1,1,0.3,Time
,,557697,001,1,24,2025-04-23_18h19.09.691,Serial_Dependence_U,2023.2.3,Win32,120.4819277,,,,,,,,,,,,1863.6512,3,1863.6512,,,,1866.7679,1867.2653,1866.2573,1866.7679,1864.6512,194,1866.2572,1867.2653,1867.7592,1867.7592,1869.557,1209.3,1869.5571,2,1870.5592,3,44,206,44,1,1.6,0.3,Time
,,557697,001,1,24,2025-04-23_18h19.09.691,Serial_Dependence_U,2023.2.3,Win32,120.4819277,,,,,,,,,,,,1870.5595,3,1870.5595,,,,1873.0737,1873.5758,1872.568,1873.0737,1871.5655,304,1872.5679,1873.5758,1874.0736,1874.0737,1875.6097,1013.1,1875.6098,3,1876.6069,3,45,207,38,1,1,0.3,Time
,,557697,001,1,24,2025-04-23_18h19.09.691,Serial_Dependence_U,2023.2.3,Win32,120.4819277,,,,,,,,,,,,1876.6072,3,1876.6073,,,,1879.3263,1879.8236,1878.8154,1879.3263,1877.6096,113,1878.8154,1879.8236,1880.3175,1880.3175,1882.1681,1156,1882.1681,3,1883.1674,3,46,208,40,1,1.2,0.3,Time
,,557697,001,1,24,2025-04-23_18h19.09.691,Serial_Dependence_U,2023.2.3,Win32,120.4819277,,,,,,,,,,,,1883.1676,3,1883.1677,,,,1885.7821,1886.2819,1885.2738,1885.7821,1884.1679,155,1885.2738,1886.2819,1886.778,1886.778,1887.9264,1106.2,1887.9265,3,1888.9236,3,47,209,30,1,1.1,0.7,Time
,,557697,001,1,24,2025-04-23_18h19.09.691,Serial_Dependence_U,2023.2.3,Win32,120.4819277,,,,,,,,,,,,1888.9237,3,1888.9239,,,,1892.0421,1892.5402,1891.5404,1892.0421,1889.9346,14,1891.5404,1892.5402,1893.0401,1893.0401,1894.7154,1262.3,1894.7154,2,1895.7152,3,48,210,17,1,1.6,0.7,Time
,,557697,001,1,24,2025-04-23_18h19.09.691,Serial_Dependence_U,2023.2.3,Win32,120.4819277,,,,,,,,,,,,1895.7154,3,1895.7154,,,,1898.1345,1898.6318,1897.632,1898.1345,1896.7261,197,1897.6319,1898.6318,1899.1256,1899.1256,1900.757,913.1,1900.7571,3,1901.7568,3,49,211,37,1,0.9,0.3,Time
,,557697,001,1,24,2025-04-23_18h19.09.691,Serial_Dependence_U,2023.2.3,Win32,120.4819277,,,,,,,,,,,,1901.757,3,1901.7571,,,,1904.382,1904.8818,1903.8737,1904.382,1902.7654,264,1903.8736,1904.8818,1905.3818,1905.3818,1906.8652,991.1,1906.8653,2,1907.8591,3,50,212,39,1,1.1,0.3,Time
,,557697,001,1,24,2025-04-23_18h19.09.691,Serial_Dependence_U,2023.2.3,Win32,120.4819277,,,,,,,,,,,,1907.8593,3,1907.8593,,,,1910.7764,1911.2734,1910.2736,1910.7763,1908.8679,0,1910.2736,1911.2734,1911.7779,1911.778,1913.7319,1115.9,1913.732,2,1914.7338,3,51,213,15,1,1.4,0.7,Time
,,557697,001,1,24,2025-04-23_18h19.09.691,Serial_Dependence_U,2023.2.3,Win32,120.4819277,,,,,,,,,,,,1914.734,3,1914.7341,,,,1917.657,1918.1589,1917.1485,1917.657,1915.7427,76,1917.1485,1918.159,1918.6566,1918.6567,1920.5235,1169,1920.5235,2,1921.5234,3,52,214,33,1,1.4,0.7,Time
,,557697,001,1,24,2025-04-23_18h19.09.691,Serial_Dependence_U,2023.2.3,Win32,120.4819277,,,,,,,,,,,,1921.5237,3,1921.5237,,,,1924.2403,1924.7401,1923.7319,1924.2402,1922.5285,51,1923.7318,1924.7401,1925.24,1925.24,1927.1901,1085.4,1927.1902,2,1928.19,3,53,215,49,1,1.2,0.7,Time
,,557697,001,1,24,2025-04-23_18h19.09.691,Serial_Dependence_U,2023.2.3,Win32,120.4819277,,,,,,,,,,,,1928.1903,4,2213.7556,s,285.5574,,2216.4723,2216.972,2215.9672,2216.4723,2214.764,12,2215.9672,2216.972,2217.472,2217.472,2219.3221,1191.4,2219.3223,3,2220.322,4,0,216,31,1,1.2,0.7,Time
,,557697,001,1,24,2025-04-23_18h19.09.691,Serial_Dependence_U,2023.2.3,Win32,120.4819277,,,,,,,,,,,,2220.3222,4,2220.3227,,,,2223.2473,2223.7471,2222.7389,2223.2472,2221.3306,116,2222.7389,2223.7471,2224.247,2224.247,2226.0971,1239.9,2226.0972,2,2227.097,4,1,217,24,1,1.4,0.3,Time
,,557697,001,1,24,2025-04-23_18h19.09.691,Serial_Dependence_U,2023.2.3,Win32,120.4819277,,,,,,,,,,,,2227.0972,4,2227.0973,,,,2229.9222,2230.422,2229.4164,2229.9222,2228.1055,6,2229.4162,2230.422,2230.9265,2230.9265,2232.9387,1276.6,2232.9388,3,2233.9407,4,2,218,5,1,1.3,0.3,Time
,,557697,001,1,24,2025-04-23_18h19.09.691,Serial_Dependence_U,2023.2.3,Win32,120.4819277,,,,,,,,,,,,2233.9409,4,2233.941,,,,2236.8638,2237.368,2236.358,2236.8638,2234.9494,139,2236.3579,2237.3681,2237.8659,2237.8659,2239.9071,1328.6,2239.9071,2,2240.9075,4,3,219,51,1,1.4,0.7,Time
,,557697,001,1,24,2025-04-23_18h19.09.691,Serial_Dependence_U,2023.2.3,Win32,120.4819277,,,,,,,,,,,,2240.9077,4,2240.9077,,,,2243.2305,2243.7302,2242.7221,2243.2304,2241.9138,169,2242.7221,2243.7302,2244.2303,2244.2303,2245.672,894.2,2245.6722,4,2246.674,4,4,220,36,1,0.8,0.3,Time
,,557697,001,1,24,2025-04-23_18h19.09.691,Serial_Dependence_U,2023.2.3,Win32,120.4819277,,,,,,,,,,,,2246.6741,4,2246.6742,,,,2249.2993,2249.7968,2248.7888,2249.2992,2247.6829,314,2248.7887,2249.7968,2250.2969,2250.2969,2251.9553,1149.2,2251.9554,3,2252.9552,4,5,221,3,1,1.1,0.3,Time
,,557697,001,1,24,2025-04-23_18h19.09.691,Serial_Dependence_U,2023.2.3,Win32,120.4819277,,,,,,,,,,,,2252.9554,4,2252.9555,,,,2255.572,2256.0718,2255.0661,2255.5719,2253.9578,279,2255.0661,2256.0718,2256.5679,2256.568,2258.1329,1061.9,2258.133,3,2259.1302,4,6,222,21,1,1.1,0.3,Time
,,557697,001,1,24,2025-04-23_18h19.09.691,Serial_Dependence_U,2023.2.3,Win32,120.4819277,,,,,,,,,,,,2259.1304,4,2259.1305,,,,2261.4553,2261.9551,2260.947,2261.4553,2260.1386,134,2260.947,2261.9551,2262.4573,2262.4574,2263.8971,786,2263.8971,3,2264.8968,4,7,223,18,1,0.8,0.3,Time
,,557697,001,1,24,2025-04-23_18h19.09.691,Serial_Dependence_U,2023.2.3,Win32,120.4819277,,,,,,,,,,,,2264.897,4,2264.8971,,,,2267.9159,2268.4135,2267.4137,2267.9159,2265.9052,38,2267.4137,2268.4135,2268.9134,2268.9135,2270.9803,1295.9,2270.9804,2,2271.9801,4,8,224,52,1,1.5,0.7,Time
,,557697,001,1,24,2025-04-23_18h19.09.691,Serial_Dependence_U,2023.2.3,Win32,120.4819277,,,,,,,,,,,,2271.9803,4,2271.9804,,,,2274.691,2275.1884,2274.1885,2274.691,2272.9827,192,2274.1884,2275.1884,2275.6884,2275.6884,2277.4802,1106.5,2277.4803,2,2278.4801,4,9,225,4,1,1.2,0.3,Time
,,557697,001,1,24,2025-04-23_18h19.09.691,Serial_Dependence_U,2023.2.3,Win32,120.4819277,,,,,,,,,,,,2278.4802,4,2278.4803,,,,2281.1969,2281.6967,2280.6887,2281.1969,2279.485,191,2280.6886,2281.6967,2282.1966,2282.1966,2284.2301,1238.2,2284.2302,3,2285.2301,4,10,226,40,1,1.2,0.3,Time
,,557697,001,1,24,2025-04-23_18h19.09.691,Serial_Dependence_U,2023.2.3,Win32,120.4819277,,,,,,,,,,,,2285.2302,4,2285.2303,,,,2287.6553,2288.1551,2287.1469,2287.6552,2286.2386,283,2287.1469,2288.1551,2288.655,2288.655,2290.6218,1153.8,2290.6219,4,2291.6216,4,11,227,1,1,0.9,0.3,Time
,,557697,001,1,24,2025-04-23_18h19.09.691,Serial_Dependence_U,2023.2.3,Win32,120.4819277,,,,,,,,,,,,2291.6218,4,2291.622,,,,2294.0468,2294.5467,2293.541,2294.0468,2292.6301,28,2293.541,2294.5467,2295.0427,2295.0428,2296.9762,1131.5,2296.9763,4,2297.9716,4,12,228,46,1,0.9,0.7,Time
,,557697,001,1,24,2025-04-23_18h19.09.691,Serial_Dependence_U,2023.2.3,Win32,120.4819277,,,,,,,,,,,,2297.9718,4,2297.9719,,,,2300.4994,2300.9966,2299.9884,2300.4993,2298.9826,242,2299.9884,2300.9966,2301.4989,2301.499,2303.0659,939.3,2303.066,2,2304.0634,4,13,229,2,1,1,0.3,Time
,,557697,001,1,24,2025-04-23_18h19.09.691,Serial_Dependence_U,2023.2.3,Win32,120.4819277,,,,,,,,,,,,2304.0635,4,2304.0636,,,,2306.3823,2306.8799,2305.8802,2306.3823,2305.0742,240,2305.8801,2306.88,2307.3799,2307.3799,2309.1551,1091.2,2309.1552,5,2310.155,4,14,230,27,1,0.8,0.7,Time
,,557697,001,1,24,2025-04-23_18h19.09.691,Serial_Dependence_U,2023.2.3,Win32,120.4819277,,,,,,,,,,,,2310.1551,4,2310.1551,,,,2312.974,2313.4715,2312.4718,2312.974,2311.166,52,2312.4717,2313.4715,2313.9716,2313.9716,2315.5851,1010.7,2315.5851,2,2316.5799,4,15,231,14,1,1.3,0.7,Time
,,557697,001,1,24,2025-04-23_18h19.09.691,Serial_Dependence_U,2023.2.3,Win32,120.4819277,,,,,,,,,,,,2316.5802,4,2316.5803,,,,2318.9051,2319.4048,2318.3968,2318.905,2317.5933,83,2318.3968,2319.4049,2319.9048,2319.9048,2321.3217,784.9,2321.3217,3,2322.3237,4,16,232,45,1,0.8,0.7,Time
,,557697,001,1,24,2025-04-23_18h19.09.691,Serial_Dependence_U,2023.2.3,Win32,120.4819277,,,,,,,,,,,,2322.3239,4,2322.324,,,,2324.9408,2325.4382,2324.4384,2324.9408,2323.33,49,2324.4383,2325.4382,2325.9382,2325.9382,2327.6632,944.2,2327.6633,2,2328.6632,4,17,233,30,1,1.1,0.7,Time
,,557697,001,1,24,2025-04-23_18h19.09.691,Serial_Dependence_U,2023.2.3,Win32,120.4819277,,,,,,,,,,,,2328.6634,4,2328.6635,,,,2331.1908,2331.6882,2330.68,2331.1908,2329.6717,90,2330.68,2331.6882,2332.1882,2332.1882,2333.7243,908.5,2333.7243,2,2334.7235,4,18,234,38,1,1,0.3,Time
,,557697,001,1,24,2025-04-23_18h19.09.691,Serial_Dependence_U,2023.2.3,Win32,120.4819277,,,,,,,,,,,,2334.7239,4,2334.7239,,,,2337.7407,2338.238,2337.2383,2337.7407,2335.7325,299,2337.2383,2338.2381,2338.7381,2338.7382,2339.7991,1027.6,2339.7993,1,2340.7965,4,19,235,43,1,1.5,0.3,Time
,,557697,001,1,24,2025-04-23_18h19.09.691,Serial_Dependence_U,2023.2.3,Win32,120.4819277,,,,,,,,,,,,2340.7967,4,2340.7967,,,,2343.6217,2344.1237,2343.1133,2343.6215,2341.8049,241,2343.1133,2344.1237,2344.6215,2344.6215,2346.5548,1281.9,2346.555,3,2347.5569,4,20,236,23,1,1.3,0.3,Time
,,557697,001,1,24,2025-04-23_18h19.09.691,Serial_Dependence_U,2023.2.3,Win32,120.4819277,,,,,,,,,,,,2347.5571,4,2347.5571,,,,2349.98,2350.4797,2349.4733,2349.98,2348.5657,324,2349.4732,2350.4797,2350.9758,2350.9758,2352.2465,809.3,2352.2466,2,2353.2464,4,21,237,10,1,0.9,0.7,Time
,,557697,001,1,24,2025-04-23_18h19.09.691,Serial_Dependence_U,2023.2.3,Win32,120.4819277,,,,,,,,,,,,2353.2466,4,2353.2467,,,,2356.2657,2356.7631,2355.7632,2356.2657,2354.255,185,2355.7632,2356.7631,2357.2674,2357.2674,2359.1298,1202.6,2359.1299,2,2360.1297,4,22,238,34,1,1.5,0.7,Time
,,557697,001,1,24,2025-04-23_18h19.09.691,Serial_Dependence_U,2023.2.3,Win32,120.4819277,,,,,,,,,,,,2360.1299,4,2360.13,,,,2363.0465,2363.5463,2362.5381,2363.0465,2361.1323,66,2362.5381,2363.5463,2364.0486,2364.0487,2366.1325,1164.3,2366.1325,2,2367.1297,4,23,239,15,1,1.4,0.7,Time
,,557697,001,1,24,2025-04-23_18h19.09.691,Serial_Dependence_U,2023.2.3,Win32,120.4819277,,,,,,,,,,,,2367.1299,4,2367.13,,,,2369.4548,2369.9547,2368.9466,2369.4548,2368.1382,317,2368.9465,2369.9547,2370.4545,2370.4546,2371.9714,946.2,2371.9715,4,2372.9712,4,24,240,9,1,0.8,0.7,Time
,,557697,001,1,24,2025-04-23_18h19.09.691,Serial_Dependence_U,2023.2.3,Win32,120.4819277,,,,,,,,,,,,2372.9714,4,2372.9716,,,,2375.6965,2376.1963,2375.1881,2375.6965,2373.9799,192,2375.1881,2376.1963,2376.6963,2376.6963,2378.2631,1009.4,2378.2632,2,2379.263,4,25,241,22,1,1.2,0.3,Time
,,557697,001,1,24,2025-04-23_18h19.09.691,Serial_Dependence_U,2023.2.3,Win32,120.4819277,,,,,,,,,,,,2379.2631,4,2379.2632,,,,2382.1798,2382.6795,2381.6715,2382.1797,2380.2631,162,2381.6714,2382.6795,2383.1795,2383.1795,2385.1047,1291.6,2385.1048,2,2386.1045,4,26,242,42,1,1.4,0.3,Time
,,557697,001,1,24,2025-04-23_18h19.09.691,Serial_Dependence_U,2023.2.3,Win32,120.4819277,,,,,,,,,,,,2386.1048,4,2386.1049,,,,2389.2298,2389.7296,2388.7214,2389.2298,2387.1131,76,2388.7214,2389.7296,2390.2295,2390.2296,2392.0796,1375.7,2392.0797,2,2393.0795,4,27,243,53,1,1.6,0.7,Time
,,557697,001,1,24,2025-04-23_18h19.09.691,Serial_Dependence_U,2023.2.3,Win32,120.4819277,,,,,,,,,,,,2393.0798,4,2393.0798,,,,2396.1989,2396.6962,2395.6905,2396.1988,2394.0893,170,2395.6905,2396.6962,2397.1984,2397.1984,2399.0962,1270.5,2399.0964,2,2400.0962,4,28,244,35,1,1.6,0.7,Time
,,557697,001,1,24,2025-04-23_18h19.09.691,Serial_Dependence_U,2023.2.3,Win32,120.4819277,,,,,,,,,,,,2400.0964,4,2400.0965,,,,2402.5046,2403.0045,2401.9988,2402.5046,2401.0979,65,2401.9988,2403.0045,2403.5068,2403.5068,2405.0312,890.6,2405.0313,3,2406.0295,4,29,245,37,1,0.9,0.3,Time
,,557697,001,1,24,2025-04-23_18h19.09.691,Serial_Dependence_U,2023.2.3,Win32,120.4819277,,,,,,,,,,,,2406.0296,4,2406.0297,,,,2408.5463,2409.0422,2408.0404,2408.5463,2407.032,17,2408.0404,2409.0422,2409.5378,2409.5379,2410.9962,840.8,2410.9963,2,2411.9961,4,30,246,11,1,1,0.7,Time
,,557697,001,1,24,2025-04-23_18h19.09.691,Serial_Dependence_U,2023.2.3,Win32,120.4819277,,,,,,,,,,,,2411.9963,4,2411.9964,,,,2415.1213,2415.6211,2414.6131,2415.1213,2413.0047,166,2414.613,2415.6212,2416.121,2416.1211,2418.2045,1283.5,2418.2046,2,2419.2045,4,31,247,8,1,1.6,0.3,Time
,,557697,001,1,24,2025-04-23_18h19.09.691,Serial_Dependence_U,2023.2.3,Win32,120.4819277,,,,,,,,,,,,2419.2046,4,2419.2046,,,,2421.6297,2422.1295,2421.1213,2421.6296,2420.2129,196,2421.1213,2422.1295,2422.6295,2422.6295,2424.3961,1016.8,2424.3961,4,2425.396,4,32,248,28,1,0.9,0.7,Time
,,557697,001,1,24,2025-04-23_18h19.09.691,Serial_Dependence_U,2023.2.3,Win32,120.4819277,,,,,,,,,,,,2425.3962,4,2425.3963,,,,2427.9212,2428.421,2427.4129,2427.9212,2426.4046,314,2427.4128,2428.421,2428.921,2428.921,2430.7878,1136,2430.788,4,2431.7877,4,33,249,29,1,1,0.7,Time
,,557697,001,1,24,2025-04-23_18h19.09.691,Serial_Dependence_U,2023.2.3,Win32,120.4819277,,,,,,,,,,,,2431.7879,4,2431.788,,,,2434.5046,2435.0043,2433.9962,2434.5045,2432.7879,153,2433.9961,2435.0043,2435.5044,2435.5044,2437.1379,1095.3,2437.1379,2,2438.1398,4,34,250,13,1,1.2,0.7,Time
,,557697,001,1,24,2025-04-23_18h19.09.691,Serial_Dependence_U,2023.2.3,Win32,120.4819277,,,,,,,,,,,,2438.1401,4,2438.1401,,,,2440.757,2441.2543,2440.2487,2440.757,2439.1403,82,2440.2487,2441.2543,2441.7543,2441.7543,2443.596,1135.2,2443.5962,3,2444.598,4,35,251,39,1,1.1,0.3,Time
,,557697,001,1,24,2025-04-23_18h19.09.691,Serial_Dependence_U,2023.2.3,Win32,120.4819277,,,,,,,,,,,,2444.5982,4,2444.5983,,,,2447.1152,2447.6126,2446.6128,2447.1152,2445.6045,125,2446.6128,2447.6126,2448.1126,2448.1126,2449.8487,981.1,2449.8487,3,2450.8459,4,36,252,20,1,1,0.3,Time
,,557697,001,1,24,2025-04-23_18h19.09.691,Serial_Dependence_U,2023.2.3,Win32,120.4819277,,,,,,,,,,,,2450.8461,4,2450.8461,,,,2453.7569,2454.2583,2453.2544,2453.7569,2451.8485,140,2453.2544,2454.2583,2454.7563,2454.7564,2456.4903,1112.1,2456.4905,2,2457.4876,4,37,253,33,1,1.4,0.7,Time
,,557697,001,1,24,2025-04-23_18h19.09.691,Serial_Dependence_U,2023.2.3,Win32,120.4819277,,,,,,,,,,,,2457.4878,4,2457.4879,,,,2460.1043,2460.6043,2459.596,2460.1043,2458.4893,209,2459.596,2460.6043,2461.1064,2461.1064,2463.1543,1096.6,2463.1544,3,2464.1481,4,38,254,48,1,1.1,0.7,Time
,,557697,001,1,24,2025-04-23_18h19.09.691,Serial_Dependence_U,2023.2.3,Win32,120.4819277,,,,,,,,,,,,2464.1483,4,2464.1484,,,,2466.5711,2467.0709,2466.0627,2466.571,2465.1544,358,2466.0627,2467.0709,2467.5731,2467.5731,2469.4652,1038.7,2469.4653,4,2470.4625,4,39,255,19,1,0.9,0.3,Time
,,557697,001,1,24,2025-04-23_18h19.09.691,Serial_Dependence_U,2023.2.3,Win32,120.4819277,,,,,,,,,,,,2470.4627,4,2470.4628,,,,2473.2877,2473.7875,2472.7792,2473.2877,2471.4735,304,2472.7792,2473.7875,2474.2875,2474.2876,2476.2236,1141.8,2476.2236,2,2477.2209,4,40,256,41,1,1.3,0.3,Time
,,557697,001,1,24,2025-04-23_18h19.09.691,Serial_Dependence_U,2023.2.3,Win32,120.4819277,,,,,,,,,,,,2477.2211,4,2477.2211,,,,2480.3377,2480.8335,2479.8316,2480.3377,2478.2234,271,2479.8316,2480.8336,2481.3292,2481.3292,2483.5477,1215.8,2483.5478,2,2484.5458,4,41,257,17,1,1.6,0.7,Time
,,557697,001,1,24,2025-04-23_18h19.09.691,Serial_Dependence_U,2023.2.3,Win32,120.4819277,,,,,,,,,,,,2484.546,4,2484.546,,,,2487.6626,2488.1625,2487.1543,2487.6626,2485.546,328,2487.1542,2488.1625,2488.6623,2488.6623,2490.7626,1299.9,2490.7626,2,2491.7624,4,42,258,44,1,1.6,0.3,Time
,,557697,001,1,24,2025-04-23_18h19.09.691,Serial_Dependence_U,2023.2.3,Win32,120.4819277,,,,,,,,,,,,2491.7627,4,2491.7628,,,,2494.2876,2494.7873,2493.7793,2494.2876,2492.771,129,2493.7793,2494.7874,2495.2874,2495.2874,2497.3041,1238.5,2497.3042,4,2498.3041,4,43,259,47,1,1,0.7,Time
,,557697,001,1,24,2025-04-23_18h19.09.691,Serial_Dependence_U,2023.2.3,Win32,120.4819277,,,,,,,,,,,,2498.3043,4,2498.3044,,,,2501.2209,2501.7206,2500.7126,2501.2209,2499.3043,341,2500.7126,2501.7206,2502.2207,2502.2207,2504.2291,1183.7,2504.2292,2,2505.231,4,44,260,6,1,1.4,0.3,Time
,,557697,001,1,24,2025-04-23_18h19.09.691,Serial_Dependence_U,2023.2.3,Win32,120.4819277,,,,,,,,,,,,2505.2313,4,2505.2314,,,,2508.2484,2508.7456,2507.7459,2508.2483,2506.2399,250,2507.7458,2508.7456,2509.2457,2509.2457,2511.5649,1397.6,2511.5651,2,2512.5624,4,45,261,25,1,1.5,0.3,Time
,,557697,001,1,24,2025-04-23_18h19.09.691,Serial_Dependence_U,2023.2.3,Win32,120.4819277,,,,,,,,,,,,2512.5626,4,2512.5626,,,,2515.6808,2516.1789,2515.1792,2515.6808,2513.5733,86,2515.1792,2516.1789,2516.6812,2516.6812,2518.7374,1309.7,2518.7375,2,2519.7373,4,46,262,26,1,1.6,0.3,Time
,,557697,001,1,24,2025-04-23_18h19.09.691,Serial_Dependence_U,2023.2.3,Win32,120.4819277,,,,,,,,,,,,2519.7376,4,2519.7376,,,,2522.7642,2523.2621,2522.2566,2522.7641,2520.7458,107,2522.2566,2523.2621,2523.7623,2523.7623,2525.8707,1272.6,2525.8707,2,2526.8645,4,47,263,7,1,1.5,0.3,Time
,,557697,001,1,24,2025-04-23_18h19.09.691,Serial_Dependence_U,2023.2.3,Win32,120.4819277,,,,,,,,,,,,2526.8647,4,2526.8649,,,,2529.6874,2530.1873,2529.1791,2529.6874,2527.8708,203,2529.1791,2530.1873,2530.6894,2530.6894,2532.9139,1322.6,2532.9141,3,2533.9122,4,48,264,32,1,1.3,0.7,Time
,,557697,001,1,24,2025-04-23_18h19.09.691,Serial_Dependence_U,2023.2.3,Win32,120.4819277,,,,,,,,,,,,2533.9125,4,2533.9126,,,,2536.5291,2537.0289,2536.0208,2536.5291,2534.9149,0,2536.0207,2537.0289,2537.5289,2537.5289,2539.1984,1016.6,2539.1984,2,2540.1956,4,49,265,12,1,1.1,0.7,Time
,,557697,001,1,24,2025-04-23_18h19.09.691,Serial_Dependence_U,2023.2.3,Win32,120.4819277,,,,,,,,,,,,2540.1958,4,2540.1959,,,,2543.2207,2543.7206,2542.7124,2543.2207,2541.2041,205,2542.7123,2543.7206,2544.2205,2544.2205,2546.0872,1217,2546.0874,2,2547.0872,4,50,266,16,1,1.5,0.7,Time
,,557697,001,1,24,2025-04-23_18h19.09.691,Serial_Dependence_U,2023.2.3,Win32,120.4819277,,,,,,,,,,,,2547.0874,4,2547.0874,,,,2549.4124,2549.9121,2548.9041,2549.4124,2548.0958,88,2548.904,2549.9122,2550.4121,2550.4122,2552.3039,1102.3,2552.304,5,2553.3059,4,51,267,0,1,0.8,0.3,Time
,,557697,001,1,24,2025-04-23_18h19.09.691,Serial_Dependence_U,2023.2.3,Win32,120.4819277,,,,,,,,,,,,2553.3061,4,2553.3062,,,,2556.1206,2556.6204,2555.6148,2556.1205,2554.3139,191,2555.6148,2556.6204,2557.1205,2557.1205,2558.8038,1099.8,2558.804,2,2559.8037,4,52,268,50,1,1.3,0.7,Time
,,557697,001,1,24,2025-04-23_18h19.09.691,Serial_Dependence_U,2023.2.3,Win32,120.4819277,,,,,,,,,,,,2559.804,4,2559.804,,,,2562.5206,2563.0204,2562.0122,2562.5206,2560.8039,208,2562.0122,2563.0204,2563.5203,2563.5204,2565.2954,1175.4,2565.2955,3,2566.2954,4,53,269,49,1,1.2,0.7,Time
,,557697,001,1,24,2025-04-23_18h19.09.691,Serial_Dependence_U,2023.2.3,Win32,120.4819277,,,,,,,,,,,,2566.2955,5,2866.4774,s,300.1668,,2869.3025,2869.7962,2868.7942,2869.3025,2867.4874,132,2868.7941,2869.7962,2870.294,2870.294,2871.9716,1164.2,2871.9716,2,2872.969,5,0,270,14,1,1.3,0.7,Time
,,557697,001,1,24,2025-04-23_18h19.09.691,Serial_Dependence_U,2023.2.3,Win32,120.4819277,,,,,,,,,,,,2872.9692,5,2872.9698,,,,2875.8931,2876.3878,2875.3799,2875.893,2873.9717,49,2875.3799,2876.3879,2876.8856,2876.8856,2878.5441,1077.4,2878.5442,2,2879.5439,5,1,271,33,1,1.4,0.7,Time
,,557697,001,1,24,2025-04-23_18h19.09.691,Serial_Dependence_U,2023.2.3,Win32,120.4819277,,,,,,,,,,,,2879.5442,5,2879.5442,,,,2882.5607,2883.0605,2882.0524,2882.5607,2880.5441,171,2882.0524,2883.0606,2883.5605,2883.5605,2885.344,1173.9,2885.3441,2,2886.3438,5,2,272,25,1,1.5,0.3,Time
,,557697,001,1,24,2025-04-23_18h19.09.691,Serial_Dependence_U,2023.2.3,Win32,120.4819277,,,,,,,,,,,,2886.3441,5,2886.3441,,,,2888.8691,2889.3689,2888.3608,2888.8691,2887.3525,280,2888.3607,2889.3689,2889.8689,2889.8689,2891.5273,933.2,2891.5274,2,2892.5272,5,3,273,47,1,1,0.7,Time
,,557697,001,1,24,2025-04-23_18h19.09.691,Serial_Dependence_U,2023.2.3,Win32,120.4819277,,,,,,,,,,,,2892.5274,5,2892.5275,,,,2895.2524,2895.7522,2894.744,2895.2524,2893.5358,30,2894.744,2895.7522,2896.2522,2896.2522,2898.094,1183.5,2898.094,3,2899.0939,5,4,274,4,1,1.2,0.3,Time
,,557697,001,1,24,2025-04-23_18h19.09.691,Serial_Dependence_U,2023.2.3,Win32,120.4819277,,,,,,,,,,,,2899.094,5,2899.0941,,,,2901.9107,2902.4105,2901.4023,2901.9106,2900.0941,284,2901.4023,2902.4105,2902.9104,2902.9105,2905.019,1281.1,2905.0191,3,2906.0187,5,5,275,32,1,1.3,0.7,Time
,,557697,001,1,24,2025-04-23_18h19.09.691,Serial_Dependence_U,2023.2.3,Win32,120.4819277,,,,,,,,,,,,2906.019,5,2906.0191,,,,2908.6356,2909.1355,2908.1273,2908.6356,2907.019,354,2908.1273,2909.1355,2909.6354,2909.6354,2911.419,1089.1,2911.419,3,2912.4188,5,6,276,39,1,1.1,0.3,Time
,,557697,001,1,24,2025-04-23_18h19.09.691,Serial_Dependence_U,2023.2.3,Win32,120.4819277,,,,,,,,,,,,2912.419,5,2912.4191,,,,2914.9439,2915.4437,2914.4382,2914.9438,2913.4297,76,2914.4381,2915.4437,2915.9437,2915.9437,2917.8354,1106.1,2917.8355,4,2918.8355,5,7,277,29,1,1,0.7,Time
,,557697,001,1,24,2025-04-23_18h19.09.691,Serial_Dependence_U,2023.2.3,Win32,120.4819277,,,,,,,,,,,,2918.8357,5,2918.8357,,,,2921.5465,2922.0436,2921.0439,2921.5464,2919.8381,88,2921.0439,2922.0437,2922.5438,2922.5438,2924.3937,1156.6,2924.3938,3,2925.3981,5,8,278,49,1,1.2,0.7,Time
,,557697,001,1,24,2025-04-23_18h19.09.691,Serial_Dependence_U,2023.2.3,Win32,120.4819277,,,,,,,,,,,,2925.3983,5,2925.3983,,,,2928.4189,2928.9186,2927.9129,2928.4189,2926.4045,79,2927.9129,2928.9186,2929.4231,2929.4231,2931.2854,1292.5,2931.2855,2,2932.2854,5,9,279,34,1,1.5,0.7,Time
,,557697,001,1,24,2025-04-23_18h19.09.691,Serial_Dependence_U,2023.2.3,Win32,120.4819277,,,,,,,,,,,,2932.2856,5,2932.2857,,,,2934.6046,2935.102,2934.1039,2934.6045,2933.2938,307,2934.1038,2935.102,2935.6043,2935.6043,2937.3771,1112.6,2937.3771,5,2938.379,5,10,280,9,1,0.8,0.7,Time
,,557697,001,1,24,2025-04-23_18h19.09.691,Serial_Dependence_U,2023.2.3,Win32,120.4819277,,,,,,,,,,,,2938.3793,5,2938.3793,,,,2941.4963,2941.9936,2940.9937,2941.4963,2939.3881,250,2940.9937,2941.9936,2942.4958,2942.4958,2944.3961,1286.3,2944.3962,2,2945.3959,5,11,281,17,1,1.6,0.7,Time
,,557697,001,1,24,2025-04-23_18h19.09.691,Serial_Dependence_U,2023.2.3,Win32,120.4819277,,,,,,,,,,,,2945.3961,5,2945.3962,,,,2947.7103,2948.2125,2947.2047,2947.7103,2946.3939,186,2947.2046,2948.2125,2948.7103,2948.7103,2950.0686,878.1,2950.0686,4,2951.0686,5,12,282,27,1,0.8,0.7,Time
,,557697,001,1,24,2025-04-23_18h19.09.691,Serial_Dependence_U,2023.2.3,Win32,120.4819277,,,,,,,,,,,,2951.0687,5,2951.0688,,,,2953.8855,2954.3852,2953.3771,2953.8854,2952.0735,265,2953.3771,2954.3852,2954.8852,2954.8852,2956.7603,1217.3,2956.7604,2,2957.7623,5,13,283,5,1,1.3,0.3,Time
,,557697,001,1,24,2025-04-23_18h19.09.691,Serial_Dependence_U,2023.2.3,Win32,120.4819277,,,,,,,,,,,,2957.7626,5,2957.7626,,,,2960.7795,2961.2769,2960.2712,2960.7795,2958.7629,180,2960.2712,2961.2769,2961.7708,2961.7708,2963.4686,1188.1,2963.4687,2,2964.4685,5,14,284,52,1,1.5,0.7,Time
,,557697,001,1,24,2025-04-23_18h19.09.691,Serial_Dependence_U,2023.2.3,Win32,120.4819277,,,,,,,,,,,,2964.4687,5,2964.4688,,,,2967.3854,2967.8852,2966.877,2967.3854,2965.4712,66,2966.8769,2967.8852,2968.3851,2968.3851,2970.2602,1336.8,2970.2604,3,2971.2602,5,15,285,51,1,1.4,0.7,Time
,,557697,001,1,24,2025-04-23_18h19.09.691,Serial_Dependence_U,2023.2.3,Win32,120.4819277,,,,,,,,,,,,2971.2603,5,2971.2604,,,,2973.8853,2974.3851,2973.3771,2973.8852,2972.2687,214,2973.377,2974.3851,2974.8851,2974.8851,2976.077,858.7,2976.077,2,2977.0768,5,16,286,30,1,1.1,0.7,Time
,,557697,001,1,24,2025-04-23_18h19.09.691,Serial_Dependence_U,2023.2.3,Win32,120.4819277,,,,,,,,,,,,2977.077,5,2977.0771,,,,2979.9019,2980.4018,2979.3936,2979.9019,2978.0854,119,2979.3936,2980.4018,2980.9018,2980.9018,2982.4853,1005.8,2982.4854,2,2983.4851,5,17,287,41,1,1.3,0.3,Time
,,557697,001,1,24,2025-04-23_18h19.09.691,Serial_Dependence_U,2023.2.3,Win32,120.4819277,,,,,,,,,,,,2983.4853,5,2983.4854,,,,2986.4104,2986.9101,2985.902,2986.4103,2984.4935,305,2985.902,2986.9101,2987.4101,2987.4101,2989.1768,1195.9,2989.1769,2,2990.1768,5,18,288,15,1,1.4,0.7,Time
,,557697,001,1,24,2025-04-23_18h19.09.691,Serial_Dependence_U,2023.2.3,Win32,120.4819277,,,,,,,,,,,,2990.177,5,2990.1771,,,,2993.202,2993.7017,2992.6936,2993.202,2991.1853,27,2992.6936,2993.7017,2994.2039,2994.2039,2996.0351,1418.6,2996.0352,2,2997.035,5,19,289,16,1,1.5,0.7,Time
,,557697,001,1,24,2025-04-23_18h19.09.691,Serial_Dependence_U,2023.2.3,Win32,120.4819277,,,,,,,,,,,,2997.0351,5,2997.0352,,,,2999.3544,2999.8516,2998.8461,2999.3544,2998.0377,79,2998.8461,2999.8518,3000.3517,3000.3517,3001.9435,887.5,3001.9435,4,3002.9433,5,20,290,36,1,0.8,0.3,Time
,,557697,001,1,24,2025-04-23_18h19.09.691,Serial_Dependence_U,2023.2.3,Win32,120.4819277,,,,,,,,,,,,3002.9435,5,3002.9436,,,,3005.6602,3006.16,3005.1518,3005.6602,3003.9436,124,3005.1518,3006.16,3006.66,3006.66,3008.5018,997.9,3008.5018,2,3009.5016,5,21,291,22,1,1.2,0.3,Time
,,557697,001,1,24,2025-04-23_18h19.09.691,Serial_Dependence_U,2023.2.3,Win32,120.4819277,,,,,,,,,,,,3009.5019,5,3009.5019,,,,3011.8268,3012.3266,3011.3185,3011.8268,3010.5102,100,3011.3185,3012.3267,3012.8267,3012.8267,3014.81,798.1,3014.8102,3,3015.81,5,22,292,45,1,0.8,0.7,Time
,,557697,001,1,24,2025-04-23_18h19.09.691,Serial_Dependence_U,2023.2.3,Win32,120.4819277,,,,,,,,,,,,3015.8102,5,3015.8102,,,,3018.7352,3019.2372,3018.2268,3018.7351,3016.8185,193,3018.2268,3019.2372,3019.7371,3019.7371,3021.7709,1087.9,3021.771,2,3022.7682,5,23,293,42,1,1.4,0.3,Time
,,557697,001,1,24,2025-04-23_18h19.09.691,Serial_Dependence_U,2023.2.3,Win32,120.4819277,,,,,,,,,,,,3022.7685,5,3022.7686,,,,3025.8934,3026.3932,3025.3851,3025.8934,3023.7793,194,3025.3851,3026.3932,3026.8954,3026.8955,3028.6544,1374.9,3028.6544,2,3029.6516,5,24,294,26,1,1.6,0.3,Time
,,557697,001,1,24,2025-04-23_18h19.09.691,Serial_Dependence_U,2023.2.3,Win32,120.4819277,,,,,,,,,,,,3029.6517,5,3029.6518,,,,3032.3684,3032.8704,3031.8601,3032.3684,3030.6543,296,3031.86,3032.8704,3033.3682,3033.3682,3035.3514,1247.1,3035.3515,3,3036.3537,5,25,295,40,1,1.2,0.3,Time
,,557697,001,1,24,2025-04-23_18h19.09.691,Serial_Dependence_U,2023.2.3,Win32,120.4819277,,,,,,,,,,,,3036.3539,5,3036.3539,,,,3039.0767,3039.5765,3038.5684,3039.0767,3037.36,99,3038.5684,3039.5765,3040.0765,3040.0765,3042.485,1269.7,3042.485,4,3043.4848,5,26,296,31,1,1.2,0.7,Time
,,557697,001,1,24,2025-04-23_18h19.09.691,Serial_Dependence_U,2023.2.3,Win32,120.4819277,,,,,,,,,,,,3043.485,5,3043.485,,,,3046.41,3046.9098,3045.9017,3046.4099,3044.4933,206,3045.9016,3046.9099,3047.4099,3047.4099,3049.935,1258.2,3049.935,2,3050.9348,5,27,297,6,1,1.4,0.3,Time
,,557697,001,1,24,2025-04-23_18h19.09.691,Serial_Dependence_U,2023.2.3,Win32,120.4819277,,,,,,,,,,,,3050.935,5,3050.9351,,,,3053.4457,3053.9431,3052.9433,3053.4456,3051.9374,121,3052.9432,3053.9431,3054.437,3054.4371,3056.7182,1447.8,3056.7183,5,3057.7181,5,28,298,11,1,1,0.7,Time
,,557697,001,1,24,2025-04-23_18h19.09.691,Serial_Dependence_U,2023.2.3,Win32,120.4819277,,,,,,,,,,,,3057.7183,5,3057.7184,,,,3060.3433,3060.8431,3059.8349,3060.3433,3058.7266,340,3059.8349,3060.8431,3061.343,3061.3431,3063.3516,1200.8,3063.3516,4,3064.3514,5,29,299,12,1,1.1,0.7,Time
,,557697,001,1,24,2025-04-23_18h19.09.691,Serial_Dependence_U,2023.2.3,Win32,120.4819277,,,,,,,,,,,,3064.3516,5,3064.3517,,,,3066.8624,3067.3597,3066.3599,3066.8624,3065.3541,24,3066.3599,3067.3597,3067.8598,3067.8598,3069.7264,1127.2,3069.7265,4,3070.7286,5,30,300,38,1,1,0.3,Time
,,557697,001,1,24,2025-04-23_18h19.09.691,Serial_Dependence_U,2023.2.3,Win32,120.4819277,,,,,,,,,,,,3070.7288,5,3070.7288,,,,3073.8432,3074.343,3073.335,3073.8432,3071.7315,131,3073.3349,3074.343,3074.843,3074.843,3076.9348,1187.9,3076.9349,2,3077.9347,5,31,301,8,1,1.6,0.3,Time
,,557697,001,1,24,2025-04-23_18h19.09.691,Serial_Dependence_U,2023.2.3,Win32,120.4819277,,,,,,,,,,,,3077.9349,5,3077.935,,,,3080.4562,3080.9514,3079.9432,3080.4562,3078.9373,161,3079.9432,3080.9514,3081.4535,3081.4535,3083.3541,1246.7,3083.3541,4,3084.3513,5,32,302,20,1,1,0.3,Time
,,557697,001,1,24,2025-04-23_18h19.09.691,Serial_Dependence_U,2023.2.3,Win32,120.4819277,,,,,,,,,,,,3084.3516,5,3084.3516,,,,3086.7704,3087.268,3086.2598,3086.7704,3085.3515,331,3086.2597,3087.268,3087.7618,3087.7619,3089.4264,864.3,3089.4265,3,3090.4285,5,33,303,46,1,0.9,0.7,Time
,,557697,001,1,24,2025-04-23_18h19.09.691,Serial_Dependence_U,2023.2.3,Win32,120.4819277,,,,,,,,,,,,3090.4287,5,3090.4288,,,,3093.5431,3094.0429,3093.0348,3093.5431,3091.4265,345,3093.0348,3094.0429,3094.5429,3094.543,3096.9347,1403.1,3096.9348,2,3097.9345,5,34,304,53,1,1.6,0.7,Time
,,557697,001,1,24,2025-04-23_18h19.09.691,Serial_Dependence_U,2023.2.3,Win32,120.4819277,,,,,,,,,,,,3097.9347,5,3097.9348,,,,3100.5597,3101.0595,3100.0514,3100.5597,3098.9431,217,3100.0514,3101.0595,3101.5595,3101.5595,3103.6763,1238.9,3103.6764,4,3104.6761,5,35,305,48,1,1.1,0.7,Time
,,557697,001,1,24,2025-04-23_18h19.09.691,Serial_Dependence_U,2023.2.3,Win32,120.4819277,,,,,,,,,,,,3104.6764,5,3104.6764,,,,3107.0931,3107.5951,3106.5871,3107.093,3105.6808,328,3106.5871,3107.5951,3108.0951,3108.0952,3110.0845,1183.4,3110.0846,5,3111.0844,5,36,306,10,1,0.9,0.7,Time
,,557697,001,1,24,2025-04-23_18h19.09.691,Serial_Dependence_U,2023.2.3,Win32,120.4819277,,,,,,,,,,,,3111.0847,5,3111.0848,,,,3113.5039,3114.0011,3112.9958,3113.5039,3112.0931,234,3112.9958,3114.0012,3114.5033,3114.5033,3116.1847,927.3,3116.1847,3,3117.1867,5,37,307,37,1,0.9,0.3,Time
,,557697,001,1,24,2025-04-23_18h19.09.691,Serial_Dependence_U,2023.2.3,Win32,120.4819277,,,,,,,,,,,,3117.1869,5,3117.187,,,,3119.9895,3120.4843,3119.487,3119.9894,3118.1847,37,3119.487,3120.4844,3120.9866,3120.9866,3123.0762,1184.4,3123.0762,2,3124.0761,5,38,308,23,1,1.3,0.3,Time
,,557697,001,1,24,2025-04-23_18h19.09.691,Serial_Dependence_U,2023.2.3,Win32,120.4819277,,,,,,,,,,,,3124.0763,5,3124.0764,,,,3126.8865,3127.3844,3126.3846,3126.8864,3125.0788,335,3126.3846,3127.3844,3127.8783,3127.8783,3130.0812,1144,3130.0813,2,3131.076,5,39,309,50,1,1.3,0.7,Time
,,557697,001,1,24,2025-04-23_18h19.09.691,Serial_Dependence_U,2023.2.3,Win32,120.4819277,,,,,,,,,,,,3131.0762,5,3131.0763,,,,3133.5013,3134.001,3132.9929,3133.5013,3132.0847,282,3132.9929,3134.001,3134.501,3134.501,3136.2428,1121.6,3136.2429,4,3137.2427,5,40,310,1,1,0.9,0.3,Time
,,557697,001,1,24,2025-04-23_18h19.09.691,Serial_Dependence_U,2023.2.3,Win32,120.4819277,,,,,,,,,,,,3137.2428,5,3137.243,,,,3140.2679,3140.7676,3139.7595,3140.2679,3138.2513,305,3139.7594,3140.7676,3141.2676,3141.2676,3143.4427,1589.2,3143.4428,4,3144.4426,5,41,311,43,1,1.5,0.3,Time
,,557697,001,1,24,2025-04-23_18h19.09.691,Serial_Dependence_U,2023.2.3,Win32,120.4819277,,,,,,,,,,,,3144.4428,5,3144.4429,,,,3147.0678,3147.5676,3146.5595,3147.0678,3145.4511,135,3146.5594,3147.5676,3148.0676,3148.0676,3151.0678,1345.8,3151.0679,4,3152.0676,5,42,312,3,1,1.1,0.3,Time
,,557697,001,1,24,2025-04-23_18h19.09.691,Serial_Dependence_U,2023.2.3,Win32,120.4819277,,,,,,,,,,,,3152.0678,5,3152.0679,,,,3154.3929,3154.8926,3153.8845,3154.3929,3153.0761,257,3153.8844,3154.8926,3155.3926,3155.3926,3157.4427,1142.6,3157.4428,5,3158.4425,5,43,313,0,1,0.8,0.3,Time
,,557697,001,1,24,2025-04-23_18h19.09.691,Serial_Dependence_U,2023.2.3,Win32,120.4819277,,,,,,,,,,,,3158.4428,5,3158.4429,,,,3160.8678,3161.3676,3160.3595,3160.8677,3159.4512,249,3160.3593,3161.3676,3161.8676,3161.8676,3163.401,905.9,3163.401,3,3164.4009,5,44,314,19,1,0.9,0.3,Time
,,557697,001,1,24,2025-04-23_18h19.09.691,Serial_Dependence_U,2023.2.3,Win32,120.4819277,,,,,,,,,,,,3164.4011,5,3164.4012,,,,3167.4261,3167.9258,3166.9177,3167.4261,3165.4095,317,3166.9177,3167.9259,3168.4259,3168.4259,3170.0509,1043.4,3170.0511,1,3171.0509,5,45,315,7,1,1.5,0.3,Time
,,557697,001,1,24,2025-04-23_18h19.09.691,Serial_Dependence_U,2023.2.3,Win32,120.4819277,,,,,,,,,,,,3171.0512,5,3171.0512,,,,3173.5761,3174.0759,3173.0679,3173.5761,3172.0595,351,3173.0678,3174.0759,3174.5759,3174.5759,3176.2509,1045,3176.251,3,3177.2509,5,46,316,2,1,1,0.3,Time
,,557697,001,1,24,2025-04-23_18h19.09.691,Serial_Dependence_U,2023.2.3,Win32,120.4819277,,,,,,,,,,,,3177.2511,5,3177.2512,,,,3179.5762,3180.0758,3179.0677,3179.5761,3178.2595,66,3179.0676,3180.0758,3180.5759,3180.5759,3182.4843,1008.3,3182.4844,4,3183.4841,5,47,317,18,1,0.8,0.3,Time
,,557697,001,1,24,2025-04-23_18h19.09.691,Serial_Dependence_U,2023.2.3,Win32,120.4819277,,,,,,,,,,,,3183.4843,5,3183.4844,,,,3186.1092,3186.6091,3185.601,3186.1092,3184.4926,14,3185.601,3186.6091,3187.109,3187.109,3188.7842,902.9,3188.7843,2,3189.784,5,48,318,21,1,1.1,0.3,Time
,,557697,001,1,24,2025-04-23_18h19.09.691,Serial_Dependence_U,2023.2.3,Win32,120.4819277,,,,,,,,,,,,3189.7843,5,3189.7844,,,,3192.701,3193.2007,3192.1952,3192.7009,3190.7926,152,3192.1952,3193.2007,3193.7007,3193.7007,3195.3176,997.1,3195.3176,2,3196.3174,5,49,319,24,1,1.4,0.3,Time
,,557697,001,1,24,2025-04-23_18h19.09.691,Serial_Dependence_U,2023.2.3,Win32,120.4819277,,,,,,,,,,,,3196.3176,5,3196.3177,,,,3198.7343,3199.2341,3198.2259,3198.7343,3197.3175,319,3198.2258,3199.2342,3199.7341,3199.7341,3201.5091,958.6,3201.5092,4,3202.5091,5,50,320,28,1,0.9,0.7,Time
,,557697,001,1,24,2025-04-23_18h19.09.691,Serial_Dependence_U,2023.2.3,Win32,120.4819277,,,,,,,,,,,,3202.5092,5,3202.5094,,,,3205.6259,3206.1258,3205.1175,3205.6259,3203.5092,325,3205.1175,3206.1258,3206.6256,3206.6256,3208.4924,1258.4,3208.4925,2,3209.4923,5,51,321,35,1,1.6,0.7,Time
,,557697,001,1,24,2025-04-23_18h19.09.691,Serial_Dependence_U,2023.2.3,Win32,120.4819277,,,,,,,,,,,,3209.4925,5,3209.4926,,,,3212.2175,3212.7173,3211.7091,3212.2175,3210.5009,63,3211.7091,3212.7173,3213.2173,3213.2173,3214.8674,1092.6,3214.8676,2,3215.8673,5,52,322,13,1,1.2,0.7,Time
,,557697,001,1,24,2025-04-23_18h19.09.691,Serial_Dependence_U,2023.2.3,Win32,120.4819277,,,,,,,,,,,,3215.8675,5,3215.8676,,,,3218.9925,3219.4923,3218.4842,3218.9924,3216.8758,116,3218.4841,3219.4923,3219.9922,3219.9922,3222.0342,1219.4,3222.0342,2,3223.0339,5,53,323,44,1,1.6,0.3,Time
,,557697,001,1,24,2025-04-23_18h19.09.691,Serial_Dependence_U,2023.2.3,Win32,120.4819277,,,,,,,,,,,,3223.0342,6,3337.8253,s,114.7807,,3340.4502,3340.9501,3339.9445,3340.4502,3338.8342,73,3339.9445,3340.9501,3341.4501,3341.4501,3343.2585,1129.8,3343.2586,3,3344.2585,6,0,324,30,1,1.1,0.7,Time
,,557697,001,1,24,2025-04-23_18h19.09.691,Serial_Dependence_U,2023.2.3,Win32,120.4819277,,,,,,,,,,,,3344.2587,6,3344.2592,,,,3346.9837,3347.4835,3346.4753,3346.9836,3345.267,291,3346.4753,3347.4835,3347.9834,3347.9834,3349.7502,1150.3,3349.7503,3,3350.7501,6,1,325,13,1,1.2,0.7,Time
,,557697,001,1,24,2025-04-23_18h19.09.691,Serial_Dependence_U,2023.2.3,Win32,120.4819277,,,,,,,,,,,,3350.7502,6,3350.7503,,,,3353.2751,3353.775,3352.7669,3353.2751,3351.7585,158,3352.7668,3353.775,3354.2771,3354.2772,3356.4251,1015.8,3356.4251,3,3357.425,6,2,326,2,1,1,0.3,Time
,,557697,001,1,24,2025-04-23_18h19.09.691,Serial_Dependence_U,2023.2.3,Win32,120.4819277,,,,,,,,,,,,3357.4251,6,3357.4253,,,,3360.0501,3360.5522,3359.5443,3360.0501,3358.436,269,3359.5443,3360.5522,3361.05,3361.0501,3362.7028,1005.4,3362.7029,2,3363.7,6,3,327,3,1,1.1,0.3,Time
,,557697,001,1,24,2025-04-23_18h19.09.691,Serial_Dependence_U,2023.2.3,Win32,120.4819277,,,,,,,,,,,,3363.7002,6,3363.7003,,,,3366.5252,3367.025,3366.0168,3366.5252,3364.7086,79,3366.0168,3367.025,3367.5249,3367.525,3369.4751,1245.4,3369.4752,3,3370.4749,6,4,328,5,1,1.3,0.3,Time
,,557697,001,1,24,2025-04-23_18h19.09.691,Serial_Dependence_U,2023.2.3,Win32,120.4819277,,,,,,,,,,,,3370.4752,6,3370.4752,,,,3373.0918,3373.5916,3372.5835,3373.0918,3371.4752,94,3372.5834,3373.5916,3374.0916,3374.0916,3375.8418,957.2,3375.8419,2,3376.8416,6,5,329,21,1,1.1,0.3,Time
,,557697,001,1,24,2025-04-23_18h19.09.691,Serial_Dependence_U,2023.2.3,Win32,120.4819277,,,,,,,,,,,,3376.8418,6,3376.8419,,,,3379.2668,3379.7666,3378.7584,3379.2668,3377.8501,147,3378.7583,3379.7666,3380.2665,3380.2666,3381.7751,923.4,3381.7751,3,3382.7749,6,6,330,28,1,0.9,0.7,Time
,,557697,001,1,24,2025-04-23_18h19.09.691,Serial_Dependence_U,2023.2.3,Win32,120.4819277,,,,,,,,,,,,3382.7751,6,3382.7752,,,,3385.8,3386.2999,3385.2941,3385.8,3383.7859,348,3385.2941,3386.2999,3386.8021,3386.8022,3389.5667,1283.8,3389.5668,2,3390.5666,6,7,331,16,1,1.5,0.7,Time
,,557697,001,1,24,2025-04-23_18h19.09.691,Serial_Dependence_U,2023.2.3,Win32,120.4819277,,,,,,,,,,,,3390.5668,6,3390.5669,,,,3392.8751,3393.3748,3392.3716,3392.875,3391.5692,24,3392.3715,3393.3748,3393.8749,3393.8749,3395.6666,898.8,3395.6667,4,3396.6665,6,8,332,45,1,0.8,0.7,Time
,,557697,001,1,24,2025-04-23_18h19.09.691,Serial_Dependence_U,2023.2.3,Win32,120.4819277,,,,,,,,,,,,3396.6667,6,3396.6668,,,,3399.7834,3400.2831,3399.2775,3399.7833,3397.6668,185,3399.2775,3400.2831,3400.7771,3400.7771,3402.75,1228.8,3402.7501,2,3403.7498,6,9,333,35,1,1.6,0.7,Time
,,557697,001,1,24,2025-04-23_18h19.09.691,Serial_Dependence_U,2023.2.3,Win32,120.4819277,,,,,,,,,,,,3403.75,6,3403.75,,,,3406.8608,3407.3581,3406.3526,3406.8608,3404.7441,123,3406.3525,3407.3581,3407.8581,3407.8581,3409.6609,1299.8,3409.661,2,3410.6626,6,10,334,8,1,1.6,0.3,Time
,,557697,001,1,24,2025-04-23_18h19.09.691,Serial_Dependence_U,2023.2.3,Win32,120.4819277,,,,,,,,,,,,3410.6628,6,3410.6628,,,,3413.475,3413.9748,3412.9691,3413.475,3411.6667,342,3412.969,3413.9748,3414.4686,3414.4686,3416.6498,1284.6,3416.65,3,3417.6498,6,11,335,32,1,1.3,0.7,Time
,,557697,001,1,24,2025-04-23_18h19.09.691,Serial_Dependence_U,2023.2.3,Win32,120.4819277,,,,,,,,,,,,3417.65,6,3417.65,,,,3420.5598,3421.058,3420.0583,3420.5597,3418.6547,150,3420.0582,3421.058,3421.5519,3421.5519,3423.3914,1083.2,3423.3915,2,3424.3914,6,12,336,51,1,1.4,0.7,Time
,,557697,001,1,24,2025-04-23_18h19.09.691,Serial_Dependence_U,2023.2.3,Win32,120.4819277,,,,,,,,,,,,3424.3916,6,3424.3916,,,,3427.4107,3427.908,3426.9047,3427.4107,3425.4024,42,3426.9046,3427.908,3428.408,3428.408,3430.5108,1233.3,3430.5109,2,3431.5103,6,13,337,52,1,1.5,0.7,Time
,,557697,001,1,24,2025-04-23_18h19.09.691,Serial_Dependence_U,2023.2.3,Win32,120.4819277,,,,,,,,,,,,3431.5105,6,3431.5105,,,,3434.1248,3434.6246,3433.6165,3434.1248,3432.5107,156,3433.6165,3434.6247,3435.1247,3435.1247,3436.7332,1082.9,3436.7332,3,3437.7351,6,14,338,39,1,1.1,0.3,Time
,,557697,001,1,24,2025-04-23_18h19.09.691,Serial_Dependence_U,2023.2.3,Win32,120.4819277,,,,,,,,,,,,3437.7353,6,3437.7354,,,,3440.0583,3440.558,3439.5499,3440.0582,3438.7416,10,3439.5498,3440.558,3441.058,3441.0581,3442.5747,952.4,3442.5748,4,3443.5746,6,15,339,27,1,0.8,0.7,Time
,,557697,001,1,24,2025-04-23_18h19.09.691,Serial_Dependence_U,2023.2.3,Win32,120.4819277,,,,,,,,,,,,3443.5748,6,3443.5749,,,,3446.3998,3446.8996,3445.8915,3446.3998,3444.5832,288,3445.8915,3446.8996,3447.3996,3447.3996,3449.2914,1149.8,3449.2915,2,3450.2913,6,16,340,23,1,1.3,0.3,Time
,,557697,001,1,24,2025-04-23_18h19.09.691,Serial_Dependence_U,2023.2.3,Win32,120.4819277,,,,,,,,,,,,3450.2915,6,3450.2915,,,,3453.1165,3453.6162,3452.6082,3453.1164,3451.2998,353,3452.6081,3453.6162,3454.1163,3454.1163,3455.7913,1043.3,3455.7914,2,3456.7913,6,17,341,14,1,1.3,0.7,Time
,,557697,001,1,24,2025-04-23_18h19.09.691,Serial_Dependence_U,2023.2.3,Win32,120.4819277,,,,,,,,,,,,3456.7915,6,3456.7916,,,,3459.4164,3459.9163,3458.9081,3459.4164,3457.7998,234,3458.908,3459.9163,3460.4162,3460.4162,3462.4746,1226.4,3462.4748,4,3463.4766,6,18,342,12,1,1.1,0.7,Time
,,557697,001,1,24,2025-04-23_18h19.09.691,Serial_Dependence_U,2023.2.3,Win32,120.4819277,,,,,,,,,,,,3463.4768,6,3463.4769,,,,3466.1914,3466.6911,3465.6831,3466.1914,3464.4771,89,3465.683,3466.6911,3467.1912,3467.1912,3468.958,1244.6,3468.958,3,3469.9601,6,19,343,49,1,1.2,0.7,Time
,,557697,001,1,24,2025-04-23_18h19.09.691,Serial_Dependence_U,2023.2.3,Win32,120.4819277,,,,,,,,,,,,3469.9603,6,3469.9603,,,,3472.9747,3473.4706,3472.4689,3472.9746,3470.9605,177,3472.4688,3473.4706,3473.9662,3473.9662,3476.0189,1300,3476.0189,2,3477.0183,6,20,344,7,1,1.5,0.3,Time
,,557697,001,1,24,2025-04-23_18h19.09.691,Serial_Dependence_U,2023.2.3,Win32,120.4819277,,,,,,,,,,,,3477.0186,6,3477.0187,,,,3479.4461,3479.9412,3478.933,3479.446,3478.0271,356,3478.933,3479.9412,3480.443,3480.443,3482.2272,975,3482.2272,4,3483.2244,6,21,345,46,1,0.9,0.7,Time
,,557697,001,1,24,2025-04-23_18h19.09.691,Serial_Dependence_U,2023.2.3,Win32,120.4819277,,,,,,,,,,,,3483.2246,6,3483.2247,,,,3486.2414,3486.7411,3485.733,3486.2413,3484.2246,280,3485.7329,3486.7412,3487.2411,3487.2411,3489.4579,1185.8,3489.4579,2,3490.4577,6,22,346,43,1,1.5,0.3,Time
,,557697,001,1,24,2025-04-23_18h19.09.691,Serial_Dependence_U,2023.2.3,Win32,120.4819277,,,,,,,,,,,,3490.458,6,3490.458,,,,3493.5829,3494.0827,3493.0746,3493.5829,3491.4664,62,3493.0746,3494.0828,3494.5828,3494.5828,3496.5912,1148.3,3496.5913,2,3497.591,6,23,347,17,1,1.6,0.7,Time
,,557697,001,1,24,2025-04-23_18h19.09.691,Serial_Dependence_U,2023.2.3,Win32,120.4819277,,,,,,,,,,,,3497.5912,6,3497.5913,,,,3500.5163,3501.016,3500.008,3500.5162,3498.5996,289,3500.0079,3501.016,3501.5161,3501.5161,3503.7745,1381.9,3503.7745,3,3504.7744,6,24,348,24,1,1.4,0.3,Time
,,557697,001,1,24,2025-04-23_18h19.09.691,Serial_Dependence_U,2023.2.3,Win32,120.4819277,,,,,,,,,,,,3504.7746,6,3504.7747,,,,3507.1994,3507.6994,3506.6912,3507.1994,3505.7828,64,3506.6912,3507.6994,3508.1994,3508.1994,3510.3411,1115,3510.3412,4,3511.343,6,25,349,19,1,0.9,0.3,Time
,,557697,001,1,24,2025-04-23_18h19.09.691,Serial_Dependence_U,2023.2.3,Win32,120.4819277,,,,,,,,,,,,3511.3433,6,3511.3433,,,,3513.6663,3514.166,3513.1579,3513.6662,3512.3521,131,3513.1579,3514.166,3514.6659,3514.6659,3516.4829,1033.7,3516.483,4,3517.4826,6,26,350,36,1,0.8,0.3,Time
,,557697,001,1,24,2025-04-23_18h19.09.691,Serial_Dependence_U,2023.2.3,Win32,120.4819277,,,,,,,,,,,,3517.4829,6,3517.4829,,,,3519.9079,3520.4077,3519.3994,3519.9079,3518.4912,249,3519.3994,3520.4077,3520.9076,3520.9076,3522.4077,921.7,3522.4078,3,3523.4076,6,27,351,1,1,0.9,0.3,Time
,,557697,001,1,24,2025-04-23_18h19.09.691,Serial_Dependence_U,2023.2.3,Win32,120.4819277,,,,,,,,,,,,3523.4078,6,3523.4079,,,,3526.2328,3526.7327,3525.7244,3526.2328,3524.4162,261,3525.7244,3526.7327,3527.2327,3527.2327,3528.716,1225.2,3528.7162,2,3529.7159,6,28,352,41,1,1.3,0.3,Time
,,557697,001,1,24,2025-04-23_18h19.09.691,Serial_Dependence_U,2023.2.3,Win32,120.4819277,,,,,,,,,,,,3529.7161,6,3529.7162,,,,3532.0411,3532.5409,3531.5327,3532.0411,3530.7244,268,3531.5327,3532.541,3533.0409,3533.0409,3534.9436,882.9,3534.9437,4,3535.9409,6,29,353,0,1,0.8,0.3,Time
,,557697,001,1,24,2025-04-23_18h19.09.691,Serial_Dependence_U,2023.2.3,Win32,120.4819277,,,,,,,,,,,,3535.9411,6,3535.9412,,,,3538.5661,3539.0659,3538.0578,3538.5661,3536.9494,161,3538.0578,3539.0659,3539.5658,3539.5658,3541.4743,992,3541.4744,2,3542.4763,6,30,354,48,1,1.1,0.7,Time
