Scale_setup.started,Scale_setup.stopped,participant,session,sex,age,date,expName,psychopyVersion,OS,frameRate,screen_scale_keys.started,screen_scale_keys.stopped,X Scale,Y Scale,rectangel_keys.started,rectangel_keys.stopped,Intro.started,Intro.stopped,key_resp_2.keys,key_resp_2.rt,key_resp_2.duration,block.started,Block_id,block.stopped,Block_resp_2.keys,Block_resp_2.rt,Block_resp_2.duration,ITI.started,ITI.stopped,Mask_2.started,Mask_2.stopped,M2.started,direction,M2.stopped,Cue.started,Cue.stopped,Response.started,Response.stopped,keyDuration,Feedback_Time.started,FeedbackID_T,Feedback_Time.stopped,trials.thisRepN,trials.thisTrialN,trials.thisN,trials.thisIndex,trials.ran,TimeDur,Coherence1,TrialType
0.0003,0.0007,670596,001,F,22,2025-04-23_19h08.44.077,Serial_Dependence_U,2023.2.3,Win32,59.88023952,,,,,,,,,,,,,,,,,,,,,,,,,,,,,,,,,,,,,,,,
,,670596,001,F,22,2025-04-23_19h08.44.077,Serial_Dependence_U,2023.2.3,Win32,59.88023952,0.0034,162.4595,0.057,0.0564,162.4598,181.84,181.8403,566.6246,space,384.7256,,,,,,,,,,,,,,,,,,,,,,,,,,,,,,
,,670596,001,F,22,2025-04-23_19h08.44.077,Serial_Dependence_U,2023.2.3,Win32,59.88023952,,,,,,,,,,,,566.662,0,571.8568,s,5.1635,,574.6073,575.1057,574.0909,574.607,572.8748,172,574.0907,575.1059,575.6061,575.6066,577.8903,617.9,577.891,1,578.8895,0,0,0,31,1,1.2,0.7,Time
,,670596,001,F,22,2025-04-23_19h08.44.077,Serial_Dependence_U,2023.2.3,Win32,59.88023952,,,,,,,,,,,,578.8906,0,578.8932,,,,581.7266,582.2215,581.2095,581.7264,579.8933,299,581.2094,582.2216,582.7216,582.7217,586.4586,867.9,586.4588,1,587.4545,0,1,1,50,1,1.3,0.7,Time
,,670596,001,F,22,2025-04-23_19h08.44.077,Serial_Dependence_U,2023.2.3,Win32,59.88023952,,,,,,,,,,,,587.4556,0,587.4559,,,,590.2917,590.7873,589.7753,590.2917,588.4588,200,589.7752,590.7874,591.2871,591.2871,595.0585,1733.6,595.0588,5,596.0532,0,2,2,23,1,1.3,0.3,Time
,,670596,001,F,22,2025-04-23_19h08.44.077,Serial_Dependence_U,2023.2.3,Win32,59.88023952,,,,,,,,,,,,596.0538,0,596.054,,,,599.2039,599.7027,598.6875,599.2038,597.0708,253,598.6873,599.7028,600.2025,600.2026,606.2203,9999,606.2207,0,607.2185,0,3,3,44,1,1.6,0.3,Time
,,670596,001,F,22,2025-04-23_19h08.44.077,Serial_Dependence_U,2023.2.3,Win32,59.88023952,,,,,,,,,,,,607.2191,0,607.2193,,,,609.869,610.368,609.3539,609.8689,608.2366,206,609.3536,610.3681,610.868,610.868,612.7517,1151.7,612.7519,3,613.7508,0,4,4,30,1,1.1,0.7,Time
,,670596,001,F,22,2025-04-23_19h08.44.077,Serial_Dependence_U,2023.2.3,Win32,59.88023952,,,,,,,,,,,,613.7513,0,613.7516,,,,616.2847,616.7836,615.7681,616.2845,614.7519,138,615.7679,616.7837,617.2838,617.2839,619.0677,1055.9,619.0679,4,620.0665,0,5,5,2,1,1,0.3,Time
,,670596,001,F,22,2025-04-23_19h08.44.077,Serial_Dependence_U,2023.2.3,Win32,59.88023952,,,,,,,,,,,,620.0671,0,620.0673,,,,622.6174,623.1162,622.1009,622.6173,621.0842,335,622.1007,623.1162,623.6162,623.6163,625.1999,910.8,625.2002,2,626.199,0,6,6,20,1,1,0.3,Time
,,670596,001,F,22,2025-04-23_19h08.44.077,Serial_Dependence_U,2023.2.3,Win32,59.88023952,,,,,,,,,,,,626.1996,0,626.1998,,,,629.1498,629.6484,628.6332,629.1497,627.2168,40,628.633,629.6484,630.1484,630.1485,630.5493,74.8,630.5497,1,631.5484,0,7,7,51,1,1.4,0.7,Time
,,670596,001,F,22,2025-04-23_19h08.44.077,Serial_Dependence_U,2023.2.3,Win32,59.88023952,,,,,,,,,,,,631.5491,0,631.5494,,,,633.9825,634.4817,633.4682,633.9824,632.5498,202,633.4681,634.4818,634.9813,634.9813,637.1149,1231.4,637.1153,5,638.1141,0,8,8,19,1,0.9,0.3,Time
,,670596,001,F,22,2025-04-23_19h08.44.077,Serial_Dependence_U,2023.2.3,Win32,59.88023952,,,,,,,,,,,,638.1146,0,638.1149,,,,641.2648,641.7636,640.7482,641.2646,639.1324,166,640.7481,641.7637,642.2637,642.2637,644.4977,1324.5,644.4979,2,645.4967,0,9,9,53,1,1.6,0.7,Time
,,670596,001,F,22,2025-04-23_19h08.44.077,Serial_Dependence_U,2023.2.3,Win32,59.88023952,,,,,,,,,,,,645.4972,0,645.4975,,,,647.8475,648.347,647.3308,647.8472,646.5139,52,647.3306,648.3471,648.8464,648.8464,650.8466,1324.5,650.8468,5,651.8459,0,10,10,18,1,0.8,0.3,Time
,,670596,001,F,22,2025-04-23_19h08.44.077,Serial_Dependence_U,2023.2.3,Win32,59.88023952,,,,,,,,,,,,651.8465,0,651.8468,,,,654.5962,655.0954,654.0801,654.596,652.8635,63,654.08,655.0955,655.5953,655.5954,658.0131,1193.3,658.0135,3,659.0115,0,11,11,49,1,1.2,0.7,Time
,,670596,001,F,22,2025-04-23_19h08.44.077,Serial_Dependence_U,2023.2.3,Win32,59.88023952,,,,,,,,,,,,659.0119,0,659.0121,,,,661.4626,661.9611,660.9461,661.4624,660.0292,69,660.946,661.9612,662.4609,662.461,664.2782,923.8,664.2785,3,665.2774,0,12,12,1,1,0.9,0.3,Time
,,670596,001,F,22,2025-04-23_19h08.44.077,Serial_Dependence_U,2023.2.3,Win32,59.88023952,,,,,,,,,,,,665.2781,0,665.2782,,,,667.8279,668.3271,667.3111,667.8277,666.2947,224,667.3109,668.3271,668.8268,668.8268,670.8939,1350.7,670.8943,5,671.8932,0,13,13,29,1,1,0.7,Time
,,670596,001,F,22,2025-04-23_19h08.44.077,Serial_Dependence_U,2023.2.3,Win32,59.88023952,,,,,,,,,,,,671.8937,0,671.8939,,,,674.5436,675.0426,674.0292,674.5434,672.9107,211,674.029,675.0427,675.5426,675.5427,677.2764,1243.6,677.2768,4,678.2755,0,14,14,39,1,1.1,0.3,Time
,,670596,001,F,22,2025-04-23_19h08.44.077,Serial_Dependence_U,2023.2.3,Win32,59.88023952,,,,,,,,,,,,678.276,0,678.2761,,,,680.6264,681.1254,680.1095,680.6263,679.2933,285,680.1094,681.1255,681.625,681.6251,683.2923,986.3,683.2926,4,684.2918,0,15,15,45,1,0.8,0.7,Time
,,670596,001,F,22,2025-04-23_19h08.44.077,Serial_Dependence_U,2023.2.3,Win32,59.88023952,,,,,,,,,,,,684.2923,0,684.2925,,,,687.4426,687.9409,686.9254,687.4424,685.3091,310,686.9253,687.9409,688.4414,688.4414,690.5247,1470.5,690.5249,2,691.5241,0,16,16,17,1,1.6,0.7,Time
,,670596,001,F,22,2025-04-23_19h08.44.077,Serial_Dependence_U,2023.2.3,Win32,59.88023952,,,,,,,,,,,,691.5247,0,691.5251,,,,694.2746,694.7735,693.7581,694.2744,692.5415,240,693.7579,694.7736,695.2733,695.2733,697.1073,1317.7,697.1077,4,698.1063,0,17,17,40,1,1.2,0.3,Time
,,670596,001,F,22,2025-04-23_19h08.44.077,Serial_Dependence_U,2023.2.3,Win32,59.88023952,,,,,,,,,,,,698.1071,0,698.1073,,,,700.8404,701.339,700.3237,700.8402,699.1073,80,700.3236,701.339,701.8393,701.8394,703.9728,1297.2,703.9729,4,704.9721,0,18,18,4,1,1.2,0.3,Time
,,670596,001,F,22,2025-04-23_19h08.44.077,Serial_Dependence_U,2023.2.3,Win32,59.88023952,,,,,,,,,,,,704.9726,0,704.9731,,,,707.9059,708.4048,707.3892,707.9058,705.9735,111,707.3891,708.4048,708.905,708.905,711.0223,1422.5,711.0226,3,712.0212,0,19,19,24,1,1.4,0.3,Time
,,670596,001,F,22,2025-04-23_19h08.44.077,Serial_Dependence_U,2023.2.3,Win32,59.88023952,,,,,,,,,,,,712.0218,0,712.0219,,,,715.1719,715.6717,714.6552,715.1718,713.0392,212,714.6551,715.6718,716.1705,716.1706,718.7378,1868.6,718.7382,4,719.737,0,20,20,26,1,1.6,0.3,Time
,,670596,001,F,22,2025-04-23_19h08.44.077,Serial_Dependence_U,2023.2.3,Win32,59.88023952,,,,,,,,,,,,719.7377,0,719.738,,,,722.3873,722.8863,721.8709,722.3871,720.7541,111,721.8707,722.8864,723.3865,723.3866,724.7535,854.9,724.7538,2,725.7528,0,21,21,21,1,1.1,0.3,Time
,,670596,001,F,22,2025-04-23_19h08.44.077,Serial_Dependence_U,2023.2.3,Win32,59.88023952,,,,,,,,,,,,725.7535,0,725.7538,,,,728.8033,729.3021,728.2866,728.8031,726.7709,222,728.2865,729.3021,729.8019,729.802,731.7361,1310.8,731.7363,2,732.7352,0,22,22,43,1,1.5,0.3,Time
,,670596,001,F,22,2025-04-23_19h08.44.077,Serial_Dependence_U,2023.2.3,Win32,59.88023952,,,,,,,,,,,,732.7358,0,732.7361,,,,735.7858,736.2849,735.2691,735.7856,733.753,204,735.2688,736.2849,736.7851,736.7851,738.4351,1619.8,738.4354,4,739.4344,0,23,23,16,1,1.5,0.7,Time
,,670596,001,F,22,2025-04-23_19h08.44.077,Serial_Dependence_U,2023.2.3,Win32,59.88023952,,,,,,,,,,,,739.435,0,739.4352,,,,742.4847,742.9836,741.9683,742.4847,740.4519,223,741.9681,742.9837,743.4837,743.4838,745.7008,1629.3,745.7011,4,746.7,0,24,24,52,1,1.5,0.7,Time
,,670596,001,F,22,2025-04-23_19h08.44.077,Serial_Dependence_U,2023.2.3,Win32,59.88023952,,,,,,,,,,,,746.7005,0,746.7007,,,,749.6336,750.1327,749.1169,749.6335,747.7011,346,749.1168,750.1327,750.6338,750.6338,752.7333,1467.9,752.7336,3,753.7325,0,25,25,15,1,1.4,0.7,Time
,,670596,001,F,22,2025-04-23_19h08.44.077,Serial_Dependence_U,2023.2.3,Win32,59.88023952,,,,,,,,,,,,753.7332,0,753.7334,,,,756.3663,756.8652,755.8496,756.3661,754.7334,192,755.8495,756.8652,757.3652,757.3652,759.8988,1941.1,759.899,5,760.8982,0,26,26,48,1,1.1,0.7,Time
,,670596,001,F,22,2025-04-23_19h08.44.077,Serial_Dependence_U,2023.2.3,Win32,59.88023952,,,,,,,,,,,,760.899,0,760.8992,,,,763.532,764.0308,763.0155,763.5319,761.899,234,763.0152,764.0308,764.5309,764.531,767.598,1720.2,767.5983,5,768.5972,0,27,27,3,1,1.1,0.3,Time
,,670596,001,F,22,2025-04-23_19h08.44.077,Serial_Dependence_U,2023.2.3,Win32,59.88023952,,,,,,,,,,,,768.5979,0,768.5981,,,,770.9315,771.4305,770.4146,770.9314,769.5983,355,770.4144,771.4305,771.9299,771.9299,773.38,871.7,773.3804,4,774.3795,0,28,28,27,1,0.8,0.7,Time
,,670596,001,F,22,2025-04-23_19h08.44.077,Serial_Dependence_U,2023.2.3,Win32,59.88023952,,,,,,,,,,,,774.38,0,774.3804,,,,777.13,777.6291,776.6135,777.1299,775.3969,174,776.6132,777.6292,778.129,778.1291,780.2965,1234.6,780.2968,3,781.2953,0,29,29,22,1,1.2,0.3,Time
,,670596,001,F,22,2025-04-23_19h08.44.077,Serial_Dependence_U,2023.2.3,Win32,59.88023952,,,,,,,,,,,,781.2959,0,781.2961,,,,784.2459,784.7448,783.7294,784.2457,782.3127,241,783.7294,784.7449,785.2452,785.2453,787.2621,1528.7,787.2623,4,788.262,0,30,30,6,1,1.4,0.3,Time
,,670596,001,F,22,2025-04-23_19h08.44.077,Serial_Dependence_U,2023.2.3,Win32,59.88023952,,,,,,,,,,,,788.2625,0,788.2628,,,,791.095,791.594,790.5783,791.0949,789.2621,196,790.5782,791.5941,792.0937,792.0938,794.2112,1290.4,794.2115,3,795.2104,0,31,31,41,1,1.3,0.3,Time
,,670596,001,F,22,2025-04-23_19h08.44.077,Serial_Dependence_U,2023.2.3,Win32,59.88023952,,,,,,,,,,,,795.211,0,795.2116,,,,797.7608,798.2599,797.2445,797.7607,796.2277,193,797.2443,798.2599,798.7596,798.7598,800.627,1288.9,800.6272,4,801.6266,0,32,32,11,1,1,0.7,Time
,,670596,001,F,22,2025-04-23_19h08.44.077,Serial_Dependence_U,2023.2.3,Win32,59.88023952,,,,,,,,,,,,801.627,0,801.6272,,,,804.7765,805.2757,804.2601,804.7764,802.6435,72,804.2599,805.2757,805.7758,805.7759,808.1091,1299.3,808.1094,2,809.1083,0,33,33,35,1,1.6,0.7,Time
,,670596,001,F,22,2025-04-23_19h08.44.077,Serial_Dependence_U,2023.2.3,Win32,59.88023952,,,,,,,,,,,,809.1087,0,809.1092,,,,811.5592,812.0579,811.0428,811.5589,810.1255,84,811.0427,812.0579,812.5581,812.5581,813.9922,1049.1,813.9925,4,814.9911,0,34,34,28,1,0.9,0.7,Time
,,670596,001,F,22,2025-04-23_19h08.44.077,Serial_Dependence_U,2023.2.3,Win32,59.88023952,,,,,,,,,,,,814.9916,0,814.9918,,,,817.4251,817.9239,816.9096,817.425,816.008,322,816.9092,817.9239,818.4237,818.4237,819.941,1039.2,819.9413,4,820.9403,0,35,35,37,1,0.9,0.3,Time
,,670596,001,F,22,2025-04-23_19h08.44.077,Serial_Dependence_U,2023.2.3,Win32,59.88023952,,,,,,,,,,,,820.9408,0,820.941,,,,823.8906,824.3896,823.3741,823.8905,821.9578,143,823.3739,824.3896,824.8894,824.8895,826.9902,1686.1,826.9905,4,827.9893,0,36,36,42,1,1.4,0.3,Time
,,670596,001,F,22,2025-04-23_19h08.44.077,Serial_Dependence_U,2023.2.3,Win32,59.88023952,,,,,,,,,,,,827.9899,0,827.9901,,,,831.0399,831.5386,830.5231,831.0399,829.0066,214,830.5229,831.5386,832.0385,832.0386,834.1726,1502.7,834.1729,3,835.1718,0,37,37,7,1,1.5,0.3,Time
,,670596,001,F,22,2025-04-23_19h08.44.077,Serial_Dependence_U,2023.2.3,Win32,59.88023952,,,,,,,,,,,,835.1725,0,835.1727,,,,838.0223,838.5212,837.5057,838.0221,836.189,250,837.5056,838.5212,839.0211,839.0212,840.8214,1426.9,840.8216,4,841.8209,0,38,38,5,1,1.3,0.3,Time
,,670596,001,F,22,2025-04-23_19h08.44.077,Serial_Dependence_U,2023.2.3,Win32,59.88023952,,,,,,,,,,,,841.8215,0,841.8217,,,,844.9714,845.4699,844.4544,844.9712,842.8388,293,844.4543,845.47,845.9704,845.9704,847.7207,1368.8,847.7209,2,848.7199,0,39,39,8,1,1.6,0.3,Time
,,670596,001,F,22,2025-04-23_19h08.44.077,Serial_Dependence_U,2023.2.3,Win32,59.88023952,,,,,,,,,,,,848.7204,0,848.7208,,,,851.0705,851.5695,850.5543,851.0703,849.7374,350,850.5541,851.5696,852.0696,852.0696,853.7197,1040.8,853.72,5,854.719,0,40,40,0,1,0.8,0.3,Time
,,670596,001,F,22,2025-04-23_19h08.44.077,Serial_Dependence_U,2023.2.3,Win32,59.88023952,,,,,,,,,,,,854.7195,0,854.7198,,,,857.0533,857.5519,856.5366,857.0531,855.721,266,856.5364,857.5519,858.0519,858.052,859.1023,490.7,859.1026,1,860.1016,0,41,41,36,1,0.8,0.3,Time
,,670596,001,F,22,2025-04-23_19h08.44.077,Serial_Dependence_U,2023.2.3,Win32,59.88023952,,,,,,,,,,,,860.1022,0,860.1025,,,,862.5526,863.0514,862.0356,862.5525,861.1189,79,862.0354,863.0514,863.5513,863.5513,865.0854,833.7,865.0855,2,866.0844,0,42,42,46,1,0.9,0.7,Time
,,670596,001,F,22,2025-04-23_19h08.44.077,Serial_Dependence_U,2023.2.3,Win32,59.88023952,,,,,,,,,,,,866.0849,0,866.0851,,,,868.4348,868.9336,867.9185,868.4347,867.1011,122,867.9183,868.9336,869.4338,869.4339,870.9511,787.3,870.9515,3,871.9503,0,43,43,9,1,0.8,0.7,Time
,,670596,001,F,22,2025-04-23_19h08.44.077,Serial_Dependence_U,2023.2.3,Win32,59.88023952,,,,,,,,,,,,871.9509,0,871.951,,,,874.7843,875.2827,874.2673,874.7842,872.951,185,874.2672,875.2828,875.7829,875.783,878.4165,1208.3,878.4168,2,879.4157,0,44,44,14,1,1.3,0.7,Time
,,670596,001,F,22,2025-04-23_19h08.44.077,Serial_Dependence_U,2023.2.3,Win32,59.88023952,,,,,,,,,,,,879.4161,0,879.4163,,,,882.4664,882.9653,881.9494,882.4663,880.4331,158,881.9493,882.9654,883.4653,883.4653,885.4324,1342.4,885.4327,2,886.4314,0,45,45,25,1,1.5,0.3,Time
,,670596,001,F,22,2025-04-23_19h08.44.077,Serial_Dependence_U,2023.2.3,Win32,59.88023952,,,,,,,,,,,,886.4319,0,886.4321,,,,889.1823,889.681,888.6654,889.1822,887.4489,259,888.6652,889.681,890.1811,890.1811,892.3981,1291.1,892.3983,4,893.3971,0,46,46,13,1,1.2,0.7,Time
,,670596,001,F,22,2025-04-23_19h08.44.077,Serial_Dependence_U,2023.2.3,Win32,59.88023952,,,,,,,,,,,,893.3977,0,893.3979,,,,896.3483,896.8469,895.8315,896.3482,894.4147,136,895.8313,896.8469,897.3468,897.3468,899.1804,1145.3,899.1806,2,900.1795,0,47,47,33,1,1.4,0.7,Time
,,670596,001,F,22,2025-04-23_19h08.44.077,Serial_Dependence_U,2023.2.3,Win32,59.88023952,,,,,,,,,,,,900.1801,0,900.1804,,,,902.63,903.1296,902.1138,902.63,901.1972,2,902.1137,903.1297,903.6294,903.6295,905.3627,916.9,905.363,3,906.3624,0,48,48,10,1,0.9,0.7,Time
,,670596,001,F,22,2025-04-23_19h08.44.077,Serial_Dependence_U,2023.2.3,Win32,59.88023952,,,,,,,,,,,,906.3629,0,906.3633,,,,909.013,909.5119,908.496,909.0129,907.3792,60,908.4959,909.512,910.0116,910.0116,911.8288,1157.9,911.8292,4,912.8282,0,49,49,12,1,1.1,0.7,Time
,,670596,001,F,22,2025-04-23_19h08.44.077,Serial_Dependence_U,2023.2.3,Win32,59.88023952,,,,,,,,,,,,912.8288,0,912.8289,,,,915.3786,915.8775,914.8621,915.3783,913.8456,98,914.8621,915.8776,916.3774,916.3775,917.8113,844.3,917.8117,2,918.8105,0,50,50,38,1,1,0.3,Time
,,670596,001,F,22,2025-04-23_19h08.44.077,Serial_Dependence_U,2023.2.3,Win32,59.88023952,,,,,,,,,,,,918.811,0,918.8113,,,,921.3611,921.8604,920.8448,921.361,919.8281,286,920.8446,921.8604,922.36,922.36,923.8941,883.3,923.8944,2,924.8932,0,51,51,47,1,1,0.7,Time
,,670596,001,F,22,2025-04-23_19h08.44.077,Serial_Dependence_U,2023.2.3,Win32,59.88023952,,,,,,,,,,,,924.8938,0,924.8939,,,,927.7434,928.2482,927.227,927.7433,925.9102,9,927.2268,928.2482,928.7427,928.7427,931.0598,1268.5,931.0601,3,932.0592,0,52,52,32,1,1.3,0.7,Time
,,670596,001,F,22,2025-04-23_19h08.44.077,Serial_Dependence_U,2023.2.3,Win32,59.88023952,,,,,,,,,,,,932.0597,0,932.06,,,,935.0929,935.5923,934.5762,935.0929,933.0599,22,934.576,935.5924,936.0917,936.0917,938.2087,1375.6,938.209,2,939.2079,0,53,53,34,1,1.5,0.7,Time
,,670596,001,F,22,2025-04-23_19h08.44.077,Serial_Dependence_U,2023.2.3,Win32,59.88023952,,,,,,,,,,,,939.2084,1,1381.7348,s,442.4934,,1384.683,1385.1823,1384.1663,1384.6829,1382.7508,5,1384.1662,1385.1823,1385.6823,1385.6823,1387.6667,1157,1387.6671,2,1388.6653,1,0,54,24,1,1.4,0.3,Time
,,670596,001,F,22,2025-04-23_19h08.44.077,Serial_Dependence_U,2023.2.3,Win32,59.88023952,,,,,,,,,,,,1388.6658,1,1388.6679,,,,1391.4992,1391.9981,1390.9825,1391.4991,1389.6667,346,1390.9823,1391.9982,1392.4979,1392.4979,1394.3651,1192.6,1394.3653,2,1395.3643,1,1,55,5,1,1.3,0.3,Time
,,670596,001,F,22,2025-04-23_19h08.44.077,Serial_Dependence_U,2023.2.3,Win32,59.88023952,,,,,,,,,,,,1395.365,1,1395.3654,,,,1397.916,1398.414,1397.3983,1397.9159,1396.382,289,1397.3981,1398.4141,1398.9139,1398.9139,1400.4308,1008.6,1400.4311,3,1401.4302,1,2,56,38,1,1,0.3,Time
,,670596,001,F,22,2025-04-23_19h08.44.077,Serial_Dependence_U,2023.2.3,Win32,59.88023952,,,,,,,,,,,,1401.4308,1,1401.4311,,,,1403.8809,1404.3796,1403.3643,1403.8805,1402.4475,336,1403.3642,1404.3797,1404.8796,1404.8798,1406.3969,985.2,1406.3972,4,1407.3963,1,3,57,19,1,0.9,0.3,Time
,,670596,001,F,22,2025-04-23_19h08.44.077,Serial_Dependence_U,2023.2.3,Win32,59.88023952,,,,,,,,,,,,1407.3971,1,1407.3975,,,,1410.2337,1410.729,1409.7172,1410.2336,1408.4007,49,1409.717,1410.729,1411.2291,1411.2291,1413.4339,1333.7,1413.4342,3,1414.429,1,4,58,14,1,1.3,0.7,Time
,,670596,001,F,22,2025-04-23_19h08.44.077,Serial_Dependence_U,2023.2.3,Win32,59.88023952,,,,,,,,,,,,1414.4294,1,1414.4296,,,,1417.479,1417.978,1416.962,1417.4789,1415.446,239,1416.9619,1417.978,1418.4777,1418.4777,1420.5952,1392.8,1420.5954,2,1421.5943,1,5,59,43,1,1.5,0.3,Time
,,670596,001,F,22,2025-04-23_19h08.44.077,Serial_Dependence_U,2023.2.3,Win32,59.88023952,,,,,,,,,,,,1421.5948,1,1421.5951,,,,1424.1322,1424.6274,1423.6152,1424.132,1422.5987,42,1423.6151,1424.6274,1425.1271,1425.1271,1426.8325,1200.2,1426.8328,4,1427.8266,1,6,60,20,1,1,0.3,Time
,,670596,001,F,22,2025-04-23_19h08.44.077,Serial_Dependence_U,2023.2.3,Win32,59.88023952,,,,,,,,,,,,1427.8272,1,1427.8275,,,,1430.2771,1430.7761,1429.7609,1430.277,1428.8441,322,1429.7607,1430.7762,1431.2763,1431.2763,1432.9102,981.2,1432.9105,4,1433.9092,1,7,61,10,1,0.9,0.7,Time
,,670596,001,F,22,2025-04-23_19h08.44.077,Serial_Dependence_U,2023.2.3,Win32,59.88023952,,,,,,,,,,,,1433.9098,1,1433.9102,,,,1436.2437,1436.7422,1435.7265,1436.2436,1434.9102,2,1435.7264,1436.7423,1437.2421,1437.2422,1438.5927,760.9,1438.593,3,1439.5916,1,8,62,9,1,0.8,0.7,Time
,,670596,001,F,22,2025-04-23_19h08.44.077,Serial_Dependence_U,2023.2.3,Win32,59.88023952,,,,,,,,,,,,1439.5922,1,1439.5926,,,,1442.7422,1443.2413,1442.2258,1442.7421,1440.6092,347,1442.2256,1443.2414,1443.7412,1443.7413,1445.942,1578.1,1445.9423,3,1446.9409,1,9,63,53,1,1.6,0.7,Time
,,670596,001,F,22,2025-04-23_19h08.44.077,Serial_Dependence_U,2023.2.3,Win32,59.88023952,,,,,,,,,,,,1446.9416,1,1446.9419,,,,1449.3746,1449.874,1448.8583,1449.3744,1447.9417,308,1448.8581,1449.8741,1450.3737,1450.3738,1451.8951,1049.9,1451.8954,4,1452.8903,1,10,64,1,1,0.9,0.3,Time
,,670596,001,F,22,2025-04-23_19h08.44.077,Serial_Dependence_U,2023.2.3,Win32,59.88023952,,,,,,,,,,,,1452.8911,1,1452.8912,,,,1455.5279,1456.0229,1455.0128,1455.5278,1453.8948,327,1455.0127,1456.0229,1456.5231,1456.5231,1458.2114,1133.3,1458.2116,3,1459.2061,1,11,65,39,1,1.1,0.3,Time
,,670596,001,F,22,2025-04-23_19h08.44.077,Serial_Dependence_U,2023.2.3,Win32,59.88023952,,,,,,,,,,,,1459.2068,1,1459.207,,,,1462.344,1462.8392,1461.8269,1462.3439,1460.2112,119,1461.8269,1462.8392,1463.3387,1463.3387,1465.5101,1499.7,1465.5103,2,1466.5054,1,12,66,17,1,1.6,0.7,Time
,,670596,001,F,22,2025-04-23_19h08.44.077,Serial_Dependence_U,2023.2.3,Win32,59.88023952,,,,,,,,,,,,1466.5061,1,1466.5064,,,,1469.4426,1469.9381,1468.9258,1469.4425,1467.5097,123,1468.9257,1469.9382,1470.438,1470.438,1472.426,1349.8,1472.4262,3,1473.4206,1,13,67,42,1,1.4,0.3,Time
,,670596,001,F,22,2025-04-23_19h08.44.077,Serial_Dependence_U,2023.2.3,Win32,59.88023952,,,,,,,,,,,,1473.4214,1,1473.4215,,,,1476.1582,1476.6538,1475.6418,1476.1581,1474.4253,309,1475.6417,1476.6539,1477.1535,1477.1535,1478.8585,1400,1478.8587,4,1479.853,1,14,68,4,1,1.2,0.3,Time
,,670596,001,F,22,2025-04-23_19h08.44.077,Serial_Dependence_U,2023.2.3,Win32,59.88023952,,,,,,,,,,,,1479.8536,1,1479.854,,,,1482.7744,1483.2703,1482.2702,1482.7742,1480.8538,100,1482.2701,1483.2703,1483.7696,1483.7696,1485.6411,1299.8,1485.6413,2,1486.636,1,15,69,51,1,1.4,0.7,Time
,,670596,001,F,22,2025-04-23_19h08.44.077,Serial_Dependence_U,2023.2.3,Win32,59.88023952,,,,,,,,,,,,1486.6367,1,1486.637,,,,1489.3731,1489.8718,1488.8567,1489.373,1487.6403,25,1488.8567,1489.8719,1490.3685,1490.3685,1492.3689,1405.7,1492.3694,4,1493.3682,1,16,70,49,1,1.2,0.7,Time
,,670596,001,F,22,2025-04-23_19h08.44.077,Serial_Dependence_U,2023.2.3,Win32,59.88023952,,,,,,,,,,,,1493.369,1,1493.3691,,,,1495.7057,1496.2044,1495.1891,1495.7056,1494.3725,222,1495.1891,1496.2044,1496.7012,1496.7013,1498.2558,933.2,1498.2568,4,1499.2509,1,17,71,0,1,0.8,0.3,Time
,,670596,001,F,22,2025-04-23_19h08.44.077,Serial_Dependence_U,2023.2.3,Win32,59.88023952,,,,,,,,,,,,1499.2516,1,1499.2519,,,,1501.7848,1502.284,1501.272,1501.7846,1500.2554,189,1501.2718,1502.2841,1502.7836,1502.7837,1504.434,1116.4,1504.4342,4,1505.4331,1,18,72,2,1,1,0.3,Time
,,670596,001,F,22,2025-04-23_19h08.44.077,Serial_Dependence_U,2023.2.3,Win32,59.88023952,,,,,,,,,,,,1505.4336,1,1505.4338,,,,1508.4839,1508.9827,1507.9672,1508.4838,1506.4507,67,1507.9671,1508.9828,1509.4828,1509.4829,1511.2346,1165.7,1511.2349,2,1512.2325,1,19,73,7,1,1.5,0.3,Time
,,670596,001,F,22,2025-04-23_19h08.44.077,Serial_Dependence_U,2023.2.3,Win32,59.88023952,,,,,,,,,,,,1512.2333,1,1512.2334,,,,1514.8696,1515.3652,1514.3534,1514.8695,1513.2384,332,1514.3533,1515.3652,1515.8651,1515.8652,1518.0364,1433.2,1518.0367,5,1519.0314,1,20,74,48,1,1.1,0.7,Time
,,670596,001,F,22,2025-04-23_19h08.44.077,Serial_Dependence_U,2023.2.3,Win32,59.88023952,,,,,,,,,,,,1519.0321,1,1519.0324,,,,1521.6655,1522.1645,1521.1527,1521.6654,1520.0361,17,1521.1526,1522.1645,1522.6641,1522.6642,1524.3847,1344.6,1524.3849,4,1525.3805,1,21,75,30,1,1.1,0.7,Time
,,670596,001,F,22,2025-04-23_19h08.44.077,Serial_Dependence_U,2023.2.3,Win32,59.88023952,,,,,,,,,,,,1525.381,1,1525.3811,,,,1528.4178,1528.9138,1527.9018,1528.4177,1526.3847,151,1527.9017,1528.9138,1529.4138,1529.4138,1531.2346,1316.2,1531.235,2,1532.2299,1,22,76,34,1,1.5,0.7,Time
,,670596,001,F,22,2025-04-23_19h08.44.077,Serial_Dependence_U,2023.2.3,Win32,59.88023952,,,,,,,,,,,,1532.2306,1,1532.2309,,,,1534.7675,1535.2626,1534.2506,1534.7673,1533.2344,20,1534.2505,1535.2626,1535.7627,1535.7628,1537.3678,1133.6,1537.368,4,1538.3626,1,23,77,47,1,1,0.7,Time
,,670596,001,F,22,2025-04-23_19h08.44.077,Serial_Dependence_U,2023.2.3,Win32,59.88023952,,,,,,,,,,,,1538.3634,1,1538.364,,,,1540.9998,1541.4952,1540.4838,1540.9997,1539.3664,44,1540.4836,1541.4953,1541.9952,1541.9953,1543.7663,1232,1543.7666,4,1544.7613,1,24,78,3,1,1.1,0.3,Time
,,670596,001,F,22,2025-04-23_19h08.44.077,Serial_Dependence_U,2023.2.3,Win32,59.88023952,,,,,,,,,,,,1544.7619,1,1544.7621,,,,1547.699,1548.1941,1547.1822,1547.699,1545.7661,129,1547.182,1548.1942,1548.6954,1548.6955,1550.2155,1499.4,1550.2158,4,1551.2105,1,25,79,6,1,1.4,0.3,Time
,,670596,001,F,22,2025-04-23_19h08.44.077,Serial_Dependence_U,2023.2.3,Win32,59.88023952,,,,,,,,,,,,1551.2113,1,1551.2115,,,,1553.5482,1554.0434,1553.0316,1553.5481,1552.2151,213,1553.0315,1554.0434,1554.5441,1554.5441,1556.0152,893.9,1556.0154,4,1557.01,1,26,80,45,1,0.8,0.7,Time
,,670596,001,F,22,2025-04-23_19h08.44.077,Serial_Dependence_U,2023.2.3,Win32,59.88023952,,,,,,,,,,,,1557.0115,1,1557.0119,,,,1559.4475,1559.9458,1558.9307,1559.4473,1558.014,141,1558.9305,1559.9458,1560.4458,1560.4458,1562.0483,1017.5,1562.0485,4,1563.0423,1,27,81,28,1,0.9,0.7,Time
,,670596,001,F,22,2025-04-23_19h08.44.077,Serial_Dependence_U,2023.2.3,Win32,59.88023952,,,,,,,,,,,,1563.043,1,1563.0437,,,,1565.9629,1566.4587,1565.4623,1565.9628,1564.0468,179,1565.4622,1566.4587,1566.9587,1566.9588,1569.0466,1333.3,1569.0468,3,1570.0412,1,28,82,15,1,1.4,0.7,Time
,,670596,001,F,22,2025-04-23_19h08.44.077,Serial_Dependence_U,2023.2.3,Win32,59.88023952,,,,,,,,,,,,1570.0419,1,1570.0422,,,,1572.6791,1573.1741,1572.1625,1572.679,1571.0458,9,1572.1623,1573.1742,1573.6744,1573.6744,1575.2627,1116.6,1575.263,3,1576.2603,1,29,83,21,1,1.1,0.3,Time
,,670596,001,F,22,2025-04-23_19h08.44.077,Serial_Dependence_U,2023.2.3,Win32,59.88023952,,,,,,,,,,,,1576.2608,1,1576.261,,,,1578.5943,1579.0909,1578.0783,1578.5942,1577.2617,215,1578.0782,1579.091,1579.5906,1579.5907,1581.1446,950,1581.1449,4,1582.14,1,30,84,27,1,0.8,0.7,Time
,,670596,001,F,22,2025-04-23_19h08.44.077,Serial_Dependence_U,2023.2.3,Win32,59.88023952,,,,,,,,,,,,1582.1406,1,1582.1408,,,,1584.6772,1585.1728,1584.161,1584.6772,1583.1444,187,1584.1608,1585.1728,1585.6727,1585.6728,1587.1107,866.5,1587.1109,2,1588.1058,1,31,85,29,1,1,0.7,Time
,,670596,001,F,22,2025-04-23_19h08.44.077,Serial_Dependence_U,2023.2.3,Win32,59.88023952,,,,,,,,,,,,1588.1066,1,1588.1068,,,,1591.1434,1591.6389,1590.6268,1591.1433,1589.1102,135,1590.6266,1591.6389,1592.1388,1592.1389,1593.9929,1316.2,1593.9931,2,1594.9892,1,32,86,52,1,1.5,0.7,Time
,,670596,001,F,22,2025-04-23_19h08.44.077,Serial_Dependence_U,2023.2.3,Win32,59.88023952,,,,,,,,,,,,1594.9897,1,1594.99,,,,1597.4256,1597.9211,1596.9092,1597.4255,1595.9938,200,1596.9091,1597.9211,1598.4208,1598.4208,1599.9256,916.7,1599.926,3,1600.9207,1,33,87,37,1,0.9,0.3,Time
,,670596,001,F,22,2025-04-23_19h08.44.077,Serial_Dependence_U,2023.2.3,Win32,59.88023952,,,,,,,,,,,,1600.9213,1,1600.9217,,,,1603.7584,1604.2537,1603.2415,1603.7583,1601.9251,30,1603.2414,1604.2537,1604.7534,1604.7535,1606.808,1299.7,1606.8082,3,1607.8031,1,34,88,41,1,1.3,0.3,Time
,,670596,001,F,22,2025-04-23_19h08.44.077,Serial_Dependence_U,2023.2.3,Win32,59.88023952,,,,,,,,,,,,1607.804,1,1607.8042,,,,1610.6408,1611.1363,1610.1243,1610.6407,1608.8084,317,1610.1242,1611.1363,1611.6361,1611.6362,1613.4736,1231.9,1613.4738,2,1614.4721,1,35,89,32,1,1.3,0.7,Time
,,670596,001,F,22,2025-04-23_19h08.44.077,Serial_Dependence_U,2023.2.3,Win32,59.88023952,,,,,,,,,,,,1614.4728,1,1614.4733,,,,1616.8069,1617.3019,1616.2899,1616.8069,1615.4734,1,1616.2898,1617.302,1617.8049,1617.8051,1619.4731,900,1619.4735,4,1620.4681,1,36,90,36,1,0.8,0.3,Time
,,670596,001,F,22,2025-04-23_19h08.44.077,Serial_Dependence_U,2023.2.3,Win32,59.88023952,,,,,,,,,,,,1620.4691,1,1620.4695,,,,1623.2058,1623.7008,1622.6894,1623.2058,1621.4727,279,1622.6892,1623.7009,1624.2008,1624.2009,1625.9723,1233.7,1625.9726,3,1626.9675,1,37,91,22,1,1.2,0.3,Time
,,670596,001,F,22,2025-04-23_19h08.44.077,Serial_Dependence_U,2023.2.3,Win32,59.88023952,,,,,,,,,,,,1626.9691,1,1626.9695,,,,1630.0047,1630.5007,1629.488,1630.0046,1627.9714,349,1629.4879,1630.5008,1631.0002,1631.0002,1633.1672,1559.5,1633.1675,3,1634.1663,1,38,92,16,1,1.5,0.7,Time
,,670596,001,F,22,2025-04-23_19h08.44.077,Serial_Dependence_U,2023.2.3,Win32,59.88023952,,,,,,,,,,,,1634.1671,1,1634.1673,,,,1636.9039,1637.3991,1636.3873,1636.9038,1635.1708,355,1636.3872,1637.3991,1637.8992,1637.8992,1639.7872,1283.1,1639.7874,4,1640.7821,1,39,93,31,1,1.2,0.7,Time
,,670596,001,F,22,2025-04-23_19h08.44.077,Serial_Dependence_U,2023.2.3,Win32,59.88023952,,,,,,,,,,,,1640.7827,1,1640.7829,,,,1643.6327,1644.1315,1643.1158,1643.6326,1641.8,280,1643.1156,1644.1315,1644.6317,1644.6318,1646.4318,1264.4,1646.432,3,1647.4312,1,40,94,23,1,1.3,0.3,Time
,,670596,001,F,22,2025-04-23_19h08.44.077,Serial_Dependence_U,2023.2.3,Win32,59.88023952,,,,,,,,,,,,1647.432,1,1647.4322,,,,1650.165,1650.6639,1649.6485,1650.1649,1648.4324,52,1649.6483,1650.664,1651.1641,1651.1641,1653.0978,1237.8,1653.0981,3,1654.097,1,41,95,40,1,1.2,0.3,Time
,,670596,001,F,22,2025-04-23_19h08.44.077,Serial_Dependence_U,2023.2.3,Win32,59.88023952,,,,,,,,,,,,1654.0974,1,1654.0976,,,,1657.0309,1657.5298,1656.514,1657.0308,1655.0982,309,1656.514,1657.5298,1658.0299,1658.0299,1659.7802,1315.4,1659.7805,2,1660.7793,1,42,96,33,1,1.4,0.7,Time
,,670596,001,F,22,2025-04-23_19h08.44.077,Serial_Dependence_U,2023.2.3,Win32,59.88023952,,,,,,,,,,,,1660.7799,1,1660.7802,,,,1663.43,1663.9292,1662.9138,1663.4299,1661.797,174,1662.9135,1663.9292,1664.4289,1664.429,1666.2299,1223.6,1666.2302,4,1667.2285,1,43,97,12,1,1.1,0.7,Time
,,670596,001,F,22,2025-04-23_19h08.44.077,Serial_Dependence_U,2023.2.3,Win32,59.88023952,,,,,,,,,,,,1667.2291,1,1667.2292,,,,1669.7623,1670.2615,1669.2468,1669.7621,1668.2321,136,1669.2466,1670.2615,1670.7613,1670.7613,1672.2954,1034,1672.2957,3,1673.2944,1,44,98,11,1,1,0.7,Time
,,670596,001,F,22,2025-04-23_19h08.44.077,Serial_Dependence_U,2023.2.3,Win32,59.88023952,,,,,,,,,,,,1673.2951,1,1673.2954,,,,1676.3448,1676.8443,1675.8283,1676.3448,1674.3119,23,1675.8282,1676.8443,1677.3447,1677.3447,1679.461,1498.2,1679.4614,3,1680.4603,1,45,99,25,1,1.5,0.3,Time
,,670596,001,F,22,2025-04-23_19h08.44.077,Serial_Dependence_U,2023.2.3,Win32,59.88023952,,,,,,,,,,,,1680.461,1,1680.4612,,,,1683.6108,1684.11,1683.0939,1683.6107,1681.4774,327,1683.0938,1684.11,1684.6095,1684.6095,1686.6268,1448.5,1686.6271,2,1687.6259,1,46,100,44,1,1.6,0.3,Time
,,670596,001,F,22,2025-04-23_19h08.44.077,Serial_Dependence_U,2023.2.3,Win32,59.88023952,,,,,,,,,,,,1687.6267,1,1687.6269,,,,1689.9766,1690.4756,1689.4599,1689.9764,1688.6434,21,1689.4598,1690.4756,1690.9755,1690.9755,1692.3925,841.7,1692.3928,4,1693.3918,1,47,101,18,1,0.8,0.3,Time
,,670596,001,F,22,2025-04-23_19h08.44.077,Serial_Dependence_U,2023.2.3,Win32,59.88023952,,,,,,,,,,,,1693.3923,1,1693.3926,,,,1696.2258,1696.7248,1695.7086,1696.2256,1694.3935,200,1695.7085,1696.7248,1697.2247,1697.2248,1699.1248,1266.9,1699.1251,3,1700.1243,1,48,102,50,1,1.3,0.7,Time
,,670596,001,F,22,2025-04-23_19h08.44.077,Serial_Dependence_U,2023.2.3,Win32,59.88023952,,,,,,,,,,,,1700.1249,1,1700.1251,,,,1703.2584,1703.7571,1702.7418,1703.2582,1701.1252,258,1702.7416,1703.7571,1704.2571,1704.2571,1706.4074,1452.1,1706.4077,2,1707.4066,1,49,103,26,1,1.6,0.3,Time
,,670596,001,F,22,2025-04-23_19h08.44.077,Serial_Dependence_U,2023.2.3,Win32,59.88023952,,,,,,,,,,,,1707.4072,1,1707.4074,,,,1710.1404,1710.6395,1709.624,1710.1403,1708.4075,167,1709.6238,1710.6395,1711.1397,1711.1398,1713.1565,1444.1,1713.1568,4,1714.1569,1,50,104,13,1,1.2,0.7,Time
,,670596,001,F,22,2025-04-23_19h08.44.077,Serial_Dependence_U,2023.2.3,Win32,59.88023952,,,,,,,,,,,,1714.1575,1,1714.1577,,,,1717.3061,1717.8052,1716.7896,1717.306,1715.173,253,1716.7895,1717.8052,1718.3053,1718.3054,1720.8888,1658.7,1720.8891,3,1721.8879,1,51,105,35,1,1.6,0.7,Time
,,670596,001,F,22,2025-04-23_19h08.44.077,Serial_Dependence_U,2023.2.3,Win32,59.88023952,,,,,,,,,,,,1721.8885,1,1721.8887,,,,1725.0386,1725.5374,1724.522,1725.0385,1722.9058,234,1724.5219,1725.5375,1726.0374,1726.0375,1728.271,1572.6,1728.2712,3,1729.2705,1,52,106,8,1,1.6,0.3,Time
,,670596,001,F,22,2025-04-23_19h08.44.077,Serial_Dependence_U,2023.2.3,Win32,59.88023952,,,,,,,,,,,,1729.271,1,1729.2712,,,,1731.704,1732.2032,1731.1881,1731.7038,1730.2711,200,1731.1879,1732.2033,1732.7031,1732.7031,1734.5043,1231.9,1734.5046,5,1735.503,1,53,107,46,1,0.9,0.7,Time
,,670596,001,F,22,2025-04-23_19h08.44.077,Serial_Dependence_U,2023.2.3,Win32,59.88023952,,,,,,,,,,,,1735.5036,2,2287.8855,s,552.35,,2290.6297,2291.1297,2290.1133,2290.6296,2288.8967,165,2290.1133,2291.1298,2291.6291,2291.6292,2294.0628,1465.9,2294.0631,4,2295.0622,2,0,108,31,1,1.2,0.7,Time
,,670596,001,F,22,2025-04-23_19h08.44.077,Serial_Dependence_U,2023.2.3,Win32,59.88023952,,,,,,,,,,,,2295.0628,2,2295.0647,,,,2297.7962,2298.295,2297.2791,2297.7961,2296.0633,73,2297.279,2298.295,2298.7955,2298.7955,2300.8119,1615,2300.8122,5,2301.8113,2,1,109,49,1,1.2,0.7,Time
,,670596,001,F,22,2025-04-23_19h08.44.077,Serial_Dependence_U,2023.2.3,Win32,59.88023952,,,,,,,,,,,,2301.8117,2,2301.812,,,,2304.2455,2304.7444,2303.7285,2304.2454,2302.8121,43,2303.7284,2304.7444,2305.2441,2305.2442,2306.8609,1026.2,2306.861,4,2307.8606,2,2,110,28,1,0.9,0.7,Time
,,670596,001,F,22,2025-04-23_19h08.44.077,Serial_Dependence_U,2023.2.3,Win32,59.88023952,,,,,,,,,,,,2307.861,2,2307.8611,,,,2310.9944,2311.4939,2310.478,2310.9943,2308.8771,320,2310.4779,2311.4939,2311.9933,2311.9933,2314.1276,1374.1,2314.128,2,2315.1265,2,3,111,53,1,1.6,0.7,Time
,,670596,001,F,22,2025-04-23_19h08.44.077,Serial_Dependence_U,2023.2.3,Win32,59.88023952,,,,,,,,,,,,2315.127,2,2315.1271,,,,2317.5771,2318.0762,2317.0602,2317.577,2316.1433,94,2317.0601,2318.0762,2318.5756,2318.5756,2320.2596,1089.9,2320.2597,4,2321.2583,2,4,112,37,1,0.9,0.3,Time
,,670596,001,F,22,2025-04-23_19h08.44.077,Serial_Dependence_U,2023.2.3,Win32,59.88023952,,,,,,,,,,,,2321.2586,2,2321.2587,,,,2323.9092,2324.4084,2323.3925,2323.9091,2322.2765,134,2323.3924,2324.4084,2324.9084,2324.9084,2326.5755,1168.5,2326.5757,4,2327.5748,2,5,113,39,1,1.1,0.3,Time
,,670596,001,F,22,2025-04-23_19h08.44.077,Serial_Dependence_U,2023.2.3,Win32,59.88023952,,,,,,,,,,,,2327.575,2,2327.5752,,,,2329.9084,2330.4078,2329.3916,2329.9083,2328.5752,319,2329.3914,2330.4078,2330.9076,2330.9077,2332.3081,992.6,2332.3083,4,2333.3075,2,6,114,9,1,0.8,0.7,Time
,,670596,001,F,22,2025-04-23_19h08.44.077,Serial_Dependence_U,2023.2.3,Win32,59.88023952,,,,,,,,,,,,2333.3082,2,2333.3083,,,,2336.3411,2336.8401,2335.8405,2336.341,2334.3245,310,2335.8405,2336.8402,2337.34,2337.3401,2339.3397,1443.6,2339.3398,3,2340.3398,2,7,115,16,1,1.5,0.7,Time
,,670596,001,F,22,2025-04-23_19h08.44.077,Serial_Dependence_U,2023.2.3,Win32,59.88023952,,,,,,,,,,,,2340.3405,2,2340.3407,,,,2342.9898,2343.4893,2342.4737,2342.9898,2341.3573,88,2342.4735,2343.4894,2343.9889,2343.989,2345.9726,1454.6,2345.9728,5,2346.9723,2,8,116,12,1,1.1,0.7,Time
,,670596,001,F,22,2025-04-23_19h08.44.077,Serial_Dependence_U,2023.2.3,Win32,59.88023952,,,,,,,,,,,,2346.9729,2,2346.973,,,,2349.4219,2349.9214,2348.9059,2349.4218,2347.9888,298,2348.9058,2349.9214,2350.4215,2350.4216,2351.9222,1024.3,2351.9224,4,2352.9213,2,9,117,10,1,0.9,0.7,Time
,,670596,001,F,22,2025-04-23_19h08.44.077,Serial_Dependence_U,2023.2.3,Win32,59.88023952,,,,,,,,,,,,2352.9218,2,2352.9221,,,,2355.7717,2356.2707,2355.255,2355.7716,2353.9383,29,2355.2549,2356.2707,2356.7706,2356.7706,2358.6206,1310.9,2358.6207,3,2359.6203,2,10,118,32,1,1.3,0.7,Time
,,670596,001,F,22,2025-04-23_19h08.44.077,Serial_Dependence_U,2023.2.3,Win32,59.88023952,,,,,,,,,,,,2359.6206,2,2359.6207,,,,2362.7702,2363.2698,2362.2544,2362.7701,2360.6371,358,2362.2544,2363.2698,2363.7695,2363.7695,2365.7196,1458.8,2365.7197,2,2366.7195,2,11,119,26,1,1.6,0.3,Time
,,670596,001,F,22,2025-04-23_19h08.44.077,Serial_Dependence_U,2023.2.3,Win32,59.88023952,,,,,,,,,,,,2366.7201,2,2366.7202,,,,2369.1696,2369.6691,2368.6529,2369.1695,2367.7367,261,2368.6528,2369.6692,2370.169,2370.169,2371.6364,955,2371.6366,4,2372.6352,2,12,120,46,1,0.9,0.7,Time
,,670596,001,F,22,2025-04-23_19h08.44.077,Serial_Dependence_U,2023.2.3,Win32,59.88023952,,,,,,,,,,,,2372.6357,2,2372.6361,,,,2375.1857,2375.685,2374.6689,2375.1855,2373.6524,194,2374.6688,2375.685,2376.1849,2376.185,2377.9356,1189.7,2377.936,4,2378.9345,2,13,121,11,1,1,0.7,Time
,,670596,001,F,22,2025-04-23_19h08.44.077,Serial_Dependence_U,2023.2.3,Win32,59.88023952,,,,,,,,,,,,2378.9349,2,2378.935,,,,2381.5676,2382.0674,2381.0519,2381.5675,2379.9351,259,2381.0518,2382.0674,2382.5672,2382.5673,2384.1172,969.6,2384.1173,2,2385.1169,2,14,122,48,1,1.1,0.7,Time
,,670596,001,F,22,2025-04-23_19h08.44.077,Serial_Dependence_U,2023.2.3,Win32,59.88023952,,,,,,,,,,,,2385.1174,2,2385.1176,,,,2387.467,2387.9664,2386.9506,2387.4669,2386.1346,317,2386.9505,2387.9664,2388.467,2388.467,2389.9506,998.5,2389.9509,4,2390.9493,2,15,123,36,1,0.8,0.3,Time
,,670596,001,F,22,2025-04-23_19h08.44.077,Serial_Dependence_U,2023.2.3,Win32,59.88023952,,,,,,,,,,,,2390.9495,2,2390.9496,,,,2393.4831,2393.9825,2392.9665,2393.4829,2391.9504,269,2392.9664,2393.9825,2394.4826,2394.4826,2396.0003,1034.2,2396.0005,3,2396.9984,2,16,124,20,1,1,0.3,Time
,,670596,001,F,22,2025-04-23_19h08.44.077,Serial_Dependence_U,2023.2.3,Win32,59.88023952,,,,,,,,,,,,2396.9989,2,2396.9991,,,,2399.9159,2400.4149,2399.3998,2399.9157,2397.9989,165,2399.3996,2400.4149,2400.9147,2400.9147,2402.9157,1409.7,2402.916,3,2403.9147,2,17,125,15,1,1.4,0.7,Time
,,670596,001,F,22,2025-04-23_19h08.44.077,Serial_Dependence_U,2023.2.3,Win32,59.88023952,,,,,,,,,,,,2403.9152,2,2403.9153,,,,2406.2649,2406.7641,2405.7483,2406.2648,2404.932,93,2405.7483,2406.7642,2407.2641,2407.2642,2408.5151,836.4,2408.5155,3,2409.5141,2,18,126,27,1,0.8,0.7,Time
,,670596,001,F,22,2025-04-23_19h08.44.077,Serial_Dependence_U,2023.2.3,Win32,59.88023952,,,,,,,,,,,,2409.5147,2,2409.5148,,,,2412.6478,2413.1463,2412.1308,2412.6476,2410.5151,5,2412.1307,2413.1463,2413.6462,2413.6462,2415.78,1484.4,2415.7803,2,2416.7796,2,19,127,44,1,1.6,0.3,Time
,,670596,001,F,22,2025-04-23_19h08.44.077,Serial_Dependence_U,2023.2.3,Win32,59.88023952,,,,,,,,,,,,2416.7801,2,2416.7803,,,,2419.4296,2419.9293,2418.913,2419.4296,2417.7967,144,2418.9129,2419.9293,2420.4293,2420.4293,2421.9961,1020.9,2421.9962,2,2422.9954,2,20,128,30,1,1.1,0.7,Time
,,670596,001,F,22,2025-04-23_19h08.44.077,Serial_Dependence_U,2023.2.3,Win32,59.88023952,,,,,,,,,,,,2422.996,2,2422.9962,,,,2425.8458,2426.3448,2425.3292,2425.8457,2424.0126,323,2425.3291,2426.3448,2426.845,2426.845,2428.829,1345.4,2428.8292,3,2429.828,2,21,129,5,1,1.3,0.3,Time
,,670596,001,F,22,2025-04-23_19h08.44.077,Serial_Dependence_U,2023.2.3,Win32,59.88023952,,,,,,,,,,,,2429.8287,2,2429.829,,,,2432.6774,2433.1774,2432.1615,2432.6773,2430.8454,323,2432.1613,2433.1775,2433.6771,2433.6771,2435.6603,1354.3,2435.6605,3,2436.6603,2,22,130,23,1,1.3,0.3,Time
,,670596,001,F,22,2025-04-23_19h08.44.077,Serial_Dependence_U,2023.2.3,Win32,59.88023952,,,,,,,,,,,,2436.6609,2,2436.661,,,,2439.5104,2440.0101,2438.994,2439.5103,2437.6775,84,2438.9939,2440.0101,2440.5098,2440.5098,2442.3259,1175.6,2442.3261,2,2443.3261,2,23,131,50,1,1.3,0.7,Time
,,670596,001,F,22,2025-04-23_19h08.44.077,Serial_Dependence_U,2023.2.3,Win32,59.88023952,,,,,,,,,,,,2443.3264,2,2443.3265,,,,2445.876,2446.3757,2445.3599,2445.8759,2444.3433,135,2445.3598,2446.3757,2446.8755,2446.8755,2448.3424,971.2,2448.3426,3,2449.3417,2,24,132,2,1,1,0.3,Time
,,670596,001,F,22,2025-04-23_19h08.44.077,Serial_Dependence_U,2023.2.3,Win32,59.88023952,,,,,,,,,,,,2449.3419,2,2449.3421,,,,2452.1926,2452.6916,2451.6761,2452.1925,2450.3588,219,2451.676,2452.6917,2453.1912,2453.1912,2454.9579,1209,2454.958,2,2455.9574,2,25,133,14,1,1.3,0.7,Time
,,670596,001,F,22,2025-04-23_19h08.44.077,Serial_Dependence_U,2023.2.3,Win32,59.88023952,,,,,,,,,,,,2455.9577,2,2455.9577,,,,2458.7918,2459.2921,2458.2911,2458.7916,2456.9749,194,2458.291,2459.2921,2459.7902,2459.7902,2461.8575,1513.4,2461.8578,4,2462.8566,2,26,134,41,1,1.3,0.3,Time
,,670596,001,F,22,2025-04-23_19h08.44.077,Serial_Dependence_U,2023.2.3,Win32,59.88023952,,,,,,,,,,,,2462.8568,2,2462.8569,,,,2465.9904,2466.4898,2465.4742,2465.9903,2463.8735,226,2465.474,2466.4898,2466.9894,2466.9895,2469.2061,1495.5,2469.2063,2,2470.2055,2,27,135,35,1,1.6,0.7,Time
,,670596,001,F,22,2025-04-23_19h08.44.077,Serial_Dependence_U,2023.2.3,Win32,59.88023952,,,,,,,,,,,,2470.2058,2,2470.2059,,,,2473.2399,2473.7384,2472.7224,2473.2398,2471.2066,40,2472.7224,2473.7385,2474.2386,2474.2386,2476.5058,1578.6,2476.506,4,2477.5049,2,28,136,34,1,1.5,0.7,Time
,,670596,001,F,22,2025-04-23_19h08.44.077,Serial_Dependence_U,2023.2.3,Win32,59.88023952,,,,,,,,,,,,2477.5055,2,2477.5056,,,,2480.4391,2480.9378,2479.9224,2480.4391,2478.5059,295,2479.9223,2480.9378,2481.4377,2481.4377,2483.2711,1334.1,2483.2715,3,2484.2704,2,29,137,6,1,1.4,0.3,Time
,,670596,001,F,22,2025-04-23_19h08.44.077,Serial_Dependence_U,2023.2.3,Win32,59.88023952,,,,,,,,,,,,2484.2707,2,2484.2709,,,,2486.7212,2487.2203,2486.2045,2486.721,2485.2878,50,2486.2044,2487.2203,2487.7204,2487.7205,2489.2706,972.2,2489.2709,4,2490.27,2,30,138,19,1,0.9,0.3,Time
,,670596,001,F,22,2025-04-23_19h08.44.077,Serial_Dependence_U,2023.2.3,Win32,59.88023952,,,,,,,,,,,,2490.2704,2,2490.2705,,,,2493.1877,2493.6861,2492.6871,2493.1877,2491.271,277,2492.687,2493.6861,2494.1861,2494.1861,2496.2029,1477.6,2496.203,4,2497.2024,2,31,139,42,1,1.4,0.3,Time
,,670596,001,F,22,2025-04-23_19h08.44.077,Serial_Dependence_U,2023.2.3,Win32,59.88023952,,,,,,,,,,,,2497.2031,2,2497.2032,,,,2499.8528,2500.352,2499.3363,2499.8527,2498.2194,292,2499.3361,2500.352,2500.852,2500.852,2502.6022,1266.9,2502.6025,4,2503.6015,2,32,140,3,1,1.1,0.3,Time
,,670596,001,F,22,2025-04-23_19h08.44.077,Serial_Dependence_U,2023.2.3,Win32,59.88023952,,,,,,,,,,,,2503.6021,2,2503.6022,,,,2506.7347,2507.2342,2506.2184,2506.7347,2504.6021,266,2506.2183,2507.2342,2507.7344,2507.7345,2509.6843,1364.4,2509.6844,2,2510.6837,2,33,141,8,1,1.6,0.3,Time
,,670596,001,F,22,2025-04-23_19h08.44.077,Serial_Dependence_U,2023.2.3,Win32,59.88023952,,,,,,,,,,,,2510.6841,2,2510.6843,,,,2513.0011,2513.4999,2512.5003,2513.001,2511.6846,53,2512.5003,2513.4999,2514.0001,2514.0002,2515.2506,813.3,2515.2508,3,2516.2498,2,34,142,45,1,0.8,0.7,Time
,,670596,001,F,22,2025-04-23_19h08.44.077,Serial_Dependence_U,2023.2.3,Win32,59.88023952,,,,,,,,,,,,2516.2502,2,2516.2504,,,,2518.5838,2519.0827,2518.0828,2518.5837,2517.267,0,2518.0828,2519.0828,2519.5831,2519.5832,2521.1169,875.2,2521.1172,4,2522.1154,2,35,143,0,1,0.8,0.3,Time
,,670596,001,F,22,2025-04-23_19h08.44.077,Serial_Dependence_U,2023.2.3,Win32,59.88023952,,,,,,,,,,,,2522.1157,2,2522.1158,,,,2524.6665,2525.1651,2524.1494,2524.6663,2523.1328,357,2524.1494,2525.1651,2525.6659,2525.6659,2527.1325,917.8,2527.1328,2,2528.1312,2,36,144,47,1,1,0.7,Time
,,670596,001,F,22,2025-04-23_19h08.44.077,Serial_Dependence_U,2023.2.3,Win32,59.88023952,,,,,,,,,,,,2528.1316,2,2528.1317,,,,2530.5648,2531.0647,2530.0491,2530.5648,2529.1482,180,2530.049,2531.0648,2531.5641,2531.5641,2533.1979,1054.6,2533.1981,4,2534.1971,2,37,145,1,1,0.9,0.3,Time
,,670596,001,F,22,2025-04-23_19h08.44.077,Serial_Dependence_U,2023.2.3,Win32,59.88023952,,,,,,,,,,,,2534.1976,2,2534.1977,,,,2536.5479,2537.0472,2536.0316,2536.5479,2535.2147,39,2536.0316,2537.0472,2537.5472,2537.5472,2538.8641,872.8,2538.8643,4,2539.8638,2,38,146,18,1,0.8,0.3,Time
,,670596,001,F,22,2025-04-23_19h08.44.077,Serial_Dependence_U,2023.2.3,Win32,59.88023952,,,,,,,,,,,,2539.8642,2,2539.8644,,,,2542.8138,2543.3131,2542.2966,2542.8138,2540.88,11,2542.2966,2543.3131,2543.8128,2543.8129,2545.5801,1148.4,2545.5802,2,2546.5791,2,39,147,33,1,1.4,0.7,Time
,,670596,001,F,22,2025-04-23_19h08.44.077,Serial_Dependence_U,2023.2.3,Win32,59.88023952,,,,,,,,,,,,2546.5796,2,2546.5798,,,,2549.3298,2549.8283,2548.8124,2549.3298,2547.5965,230,2548.8124,2549.8283,2550.3288,2550.3288,2552.5624,1489.3,2552.5624,4,2553.5613,2,40,148,40,1,1.2,0.3,Time
,,670596,001,F,22,2025-04-23_19h08.44.077,Serial_Dependence_U,2023.2.3,Win32,59.88023952,,,,,,,,,,,,2553.5619,2,2553.5621,,,,2556.512,2557.0107,2555.9955,2556.5119,2554.5787,346,2555.9954,2557.0107,2557.5109,2557.511,2559.6777,1526.1,2559.6778,4,2560.6768,2,41,149,51,1,1.4,0.7,Time
,,670596,001,F,22,2025-04-23_19h08.44.077,Serial_Dependence_U,2023.2.3,Win32,59.88023952,,,,,,,,,,,,2560.6772,2,2560.6773,,,,2563.7278,2564.227,2563.211,2563.7277,2561.6943,182,2563.2109,2564.2271,2564.7263,2564.7264,2566.9099,1550.2,2566.9101,3,2567.9097,2,42,150,7,1,1.5,0.3,Time
,,670596,001,F,22,2025-04-23_19h08.44.077,Serial_Dependence_U,2023.2.3,Win32,59.88023952,,,,,,,,,,,,2567.9101,2,2567.9101,,,,2570.9427,2571.4424,2570.4261,2570.9427,2568.9102,211,2570.426,2571.4425,2571.9423,2571.9423,2573.7427,1274.2,2573.7429,2,2574.7421,2,43,151,25,1,1.5,0.3,Time
,,670596,001,F,22,2025-04-23_19h08.44.077,Serial_Dependence_U,2023.2.3,Win32,59.88023952,,,,,,,,,,,,2574.7426,2,2574.7428,,,,2577.3918,2577.8917,2576.8757,2577.3917,2575.7591,1,2576.8756,2577.8917,2578.3917,2578.3917,2579.7919,976.8,2579.7921,2,2580.7913,2,44,152,21,1,1.1,0.3,Time
,,670596,001,F,22,2025-04-23_19h08.44.077,Serial_Dependence_U,2023.2.3,Win32,59.88023952,,,,,,,,,,,,2580.7918,2,2580.792,,,,2583.3251,2583.8241,2582.8243,2583.325,2581.8086,322,2582.8242,2583.8241,2584.3241,2584.3242,2585.9913,1088.1,2585.9914,4,2586.9907,2,45,153,29,1,1,0.7,Time
,,670596,001,F,22,2025-04-23_19h08.44.077,Serial_Dependence_U,2023.2.3,Win32,59.88023952,,,,,,,,,,,,2586.9912,2,2586.9913,,,,2589.74,2590.2399,2589.2239,2589.7399,2588.0073,356,2589.2238,2590.2399,2590.7398,2590.7398,2592.4743,1155.8,2592.4745,3,2593.4733,2,46,154,4,1,1.2,0.3,Time
,,670596,001,F,22,2025-04-23_19h08.44.077,Serial_Dependence_U,2023.2.3,Win32,59.88023952,,,,,,,,,,,,2593.4739,2,2593.4741,,,,2596.2066,2596.7059,2595.6905,2596.2065,2594.4738,303,2595.6903,2596.7059,2597.2058,2597.2058,2598.9888,1252.9,2598.9889,3,2599.9889,2,47,155,13,1,1.2,0.7,Time
,,670596,001,F,22,2025-04-23_19h08.44.077,Serial_Dependence_U,2023.2.3,Win32,59.88023952,,,,,,,,,,,,2599.9895,2,2599.9897,,,,2603.0399,2603.5381,2602.5225,2603.0398,2601.0062,59,2602.5224,2603.5381,2604.038,2604.038,2606.1046,1510.7,2606.1048,3,2607.1045,2,48,156,43,1,1.5,0.3,Time
,,670596,001,F,22,2025-04-23_19h08.44.077,Serial_Dependence_U,2023.2.3,Win32,59.88023952,,,,,,,,,,,,2607.1049,2,2607.105,,,,2609.6542,2610.1548,2609.1383,2609.6541,2608.1221,286,2609.1382,2610.1548,2610.6537,2610.6537,2612.271,1092.8,2612.2712,4,2613.2703,2,49,157,38,1,1,0.3,Time
,,670596,001,F,22,2025-04-23_19h08.44.077,Serial_Dependence_U,2023.2.3,Win32,59.88023952,,,,,,,,,,,,2613.2708,2,2613.2709,,,,2616.4035,2616.9031,2615.8874,2616.4034,2614.2713,168,2615.8873,2616.9031,2617.4031,2617.4031,2619.5034,1541.6,2619.5035,3,2620.5027,2,50,158,17,1,1.6,0.7,Time
,,670596,001,F,22,2025-04-23_19h08.44.077,Serial_Dependence_U,2023.2.3,Win32,59.88023952,,,,,,,,,,,,2620.5031,2,2620.5032,,,,2623.4361,2623.9355,2622.9193,2623.436,2621.5037,111,2622.9192,2623.9355,2624.4356,2624.4357,2626.2524,1234.9,2626.2525,2,2627.2517,2,51,159,24,1,1.4,0.3,Time
,,670596,001,F,22,2025-04-23_19h08.44.077,Serial_Dependence_U,2023.2.3,Win32,59.88023952,,,,,,,,,,,,2627.2522,2,2627.2522,,,,2630.002,2630.5013,2629.4855,2630.0018,2628.2689,156,2629.4854,2630.5014,2631.0013,2631.0013,2633.0021,1442.7,2633.0022,4,2634.0006,2,52,160,22,1,1.2,0.3,Time
,,670596,001,F,22,2025-04-23_19h08.44.077,Serial_Dependence_U,2023.2.3,Win32,59.88023952,,,,,,,,,,,,2634.0009,2,2634.001,,,,2637.0342,2637.534,2636.5177,2637.0341,2635.0019,25,2636.5176,2637.5341,2638.0337,2638.0337,2639.9832,1437.8,2639.9834,3,2640.9833,2,53,161,52,1,1.5,0.7,Time
,,670596,001,F,22,2025-04-23_19h08.44.077,Serial_Dependence_U,2023.2.3,Win32,59.88023952,,,,,,,,,,,,2640.9838,3,2883.607,s,242.6088,,2886.1519,2886.6505,2885.6352,2886.1518,2884.6181,158,2885.6351,2886.6505,2887.1512,2887.1513,2888.8178,1221.1,2888.818,4,2889.8176,3,0,162,11,1,1,0.7,Time
,,670596,001,F,22,2025-04-23_19h08.44.077,Serial_Dependence_U,2023.2.3,Win32,59.88023952,,,,,,,,,,,,2889.8183,3,2889.8197,,,,2892.2509,2892.7503,2891.7344,2892.2508,2890.8181,278,2891.7342,2892.7503,2893.2499,2893.2499,2895.0005,1242.5,2895.0007,5,2895.9997,3,1,163,46,1,0.9,0.7,Time
,,670596,001,F,22,2025-04-23_19h08.44.077,Serial_Dependence_U,2023.2.3,Win32,59.88023952,,,,,,,,,,,,2896.0001,3,2896.0001,,,,2898.7338,2899.2324,2898.217,2898.7337,2897.0004,220,2898.2168,2899.2325,2899.7324,2899.7325,2901.2662,1129.5,2901.2664,2,2902.2656,3,2,164,40,1,1.2,0.3,Time
,,670596,001,F,22,2025-04-23_19h08.44.077,Serial_Dependence_U,2023.2.3,Win32,59.88023952,,,,,,,,,,,,2902.266,3,2902.2661,,,,2904.6163,2905.1152,2904.0992,2904.6162,2903.2831,275,2904.0992,2905.1153,2905.6149,2905.6149,2907.0316,847.7,2907.0318,4,2908.0316,3,3,165,9,1,0.8,0.7,Time
,,670596,001,F,22,2025-04-23_19h08.44.077,Serial_Dependence_U,2023.2.3,Win32,59.88023952,,,,,,,,,,,,2908.0319,3,2908.032,,,,2911.082,2911.5811,2910.565,2911.0819,2909.0497,53,2910.5649,2911.5811,2912.0811,2912.0811,2913.9813,1250.5,2913.9814,2,2914.9806,3,4,166,25,1,1.5,0.3,Time
,,670596,001,F,22,2025-04-23_19h08.44.077,Serial_Dependence_U,2023.2.3,Win32,59.88023952,,,,,,,,,,,,2914.981,3,2914.9811,,,,2917.5313,2918.0305,2917.0144,2917.5312,2915.9976,15,2917.0143,2918.0305,2918.5304,2918.5304,2920.2969,1267.2,2920.2971,4,2921.2966,3,5,167,47,1,1,0.7,Time
,,670596,001,F,22,2025-04-23_19h08.44.077,Serial_Dependence_U,2023.2.3,Win32,59.88023952,,,,,,,,,,,,2921.2971,3,2921.2973,,,,2924.3461,2924.8457,2923.8315,2924.346,2922.3134,273,2923.8314,2924.8457,2925.3458,2925.3458,2927.1787,1374,2927.1789,2,2928.1789,3,6,168,7,1,1.5,0.3,Time
,,670596,001,F,22,2025-04-23_19h08.44.077,Serial_Dependence_U,2023.2.3,Win32,59.88023952,,,,,,,,,,,,2928.1792,3,2928.1794,,,,2931.3293,2931.828,2930.8126,2931.3292,2929.1962,312,2930.8124,2931.828,2932.3283,2932.3283,2934.5117,1399.6,2934.5119,2,2935.5112,3,7,169,8,1,1.6,0.3,Time
,,670596,001,F,22,2025-04-23_19h08.44.077,Serial_Dependence_U,2023.2.3,Win32,59.88023952,,,,,,,,,,,,2935.5117,3,2935.5119,,,,2938.2612,2938.7607,2937.7443,2938.2611,2936.5288,192,2937.7443,2938.7607,2939.2607,2939.2607,2941.0774,1482.7,2941.0777,4,2942.0769,3,8,170,13,1,1.2,0.7,Time
,,670596,001,F,22,2025-04-23_19h08.44.077,Serial_Dependence_U,2023.2.3,Win32,59.88023952,,,,,,,,,,,,2942.0773,3,2942.0774,,,,2944.5106,2945.0102,2943.9937,2944.5105,2943.0774,93,2943.9936,2945.0102,2945.51,2945.5101,2947.0939,1084.8,2947.0942,4,2948.093,3,9,171,28,1,0.9,0.7,Time
,,670596,001,F,22,2025-04-23_19h08.44.077,Serial_Dependence_U,2023.2.3,Win32,59.88023952,,,,,,,,,,,,2948.0937,3,2948.094,,,,2950.4431,2950.9422,2949.9268,2950.443,2949.1101,146,2949.9267,2950.9422,2951.4422,2951.4423,2952.8094,850.6,2952.8097,4,2953.809,3,10,172,45,1,0.8,0.7,Time
,,670596,001,F,22,2025-04-23_19h08.44.077,Serial_Dependence_U,2023.2.3,Win32,59.88023952,,,,,,,,,,,,2953.8092,3,2953.8094,,,,2956.6418,2957.1415,2956.1262,2956.6417,2954.8099,19,2956.126,2957.1417,2957.6415,2957.6415,2959.5761,1317.3,2959.5763,3,2960.5747,3,11,173,50,1,1.3,0.7,Time
,,670596,001,F,22,2025-04-23_19h08.44.077,Serial_Dependence_U,2023.2.3,Win32,59.88023952,,,,,,,,,,,,2960.5753,3,2960.5755,,,,2963.0258,2963.5245,2962.5085,2963.0257,2961.5915,128,2962.5083,2963.5245,2964.0244,2964.0244,2965.6741,1100.3,2965.6744,4,2966.6734,3,12,174,37,1,0.9,0.3,Time
,,670596,001,F,22,2025-04-23_19h08.44.077,Serial_Dependence_U,2023.2.3,Win32,59.88023952,,,,,,,,,,,,2966.6738,3,2966.6739,,,,2969.0072,2969.5065,2968.4908,2969.0072,2967.6741,15,2968.4907,2969.5066,2970.0065,2970.0065,2971.4732,999.4,2971.4734,4,2972.4725,3,13,175,27,1,0.8,0.7,Time
,,670596,001,F,22,2025-04-23_19h08.44.077,Serial_Dependence_U,2023.2.3,Win32,59.88023952,,,,,,,,,,,,2972.4729,3,2972.4732,,,,2975.1232,2975.6225,2974.606,2975.1231,2973.4903,288,2974.6059,2975.6226,2976.1224,2976.1225,2977.9223,1145.3,2977.9225,3,2978.9225,3,14,176,48,1,1.1,0.7,Time
,,670596,001,F,22,2025-04-23_19h08.44.077,Serial_Dependence_U,2023.2.3,Win32,59.88023952,,,,,,,,,,,,2978.9229,3,2978.9231,,,,2981.7565,2982.2552,2981.2559,2981.7563,2979.9394,193,2981.2558,2982.2553,2982.7553,2982.7554,2984.4553,1311.7,2984.4557,3,2985.4546,3,15,177,23,1,1.3,0.3,Time
,,670596,001,F,22,2025-04-23_19h08.44.077,Serial_Dependence_U,2023.2.3,Win32,59.88023952,,,,,,,,,,,,2985.4552,3,2985.4554,,,,2988.4881,2988.9872,2987.9718,2988.488,2986.4554,248,2987.9718,2988.9873,2989.4873,2989.4873,2991.4871,1383.2,2991.4873,2,2992.4866,3,16,178,16,1,1.5,0.7,Time
,,670596,001,F,22,2025-04-23_19h08.44.077,Serial_Dependence_U,2023.2.3,Win32,59.88023952,,,,,,,,,,,,2992.4869,3,2992.4871,,,,2994.821,2995.3199,2994.3044,2994.8208,2993.4874,52,2994.3043,2995.32,2995.8199,2995.8199,2997.0872,875.2,2997.0874,4,2998.0863,3,17,179,0,1,0.8,0.3,Time
,,670596,001,F,22,2025-04-23_19h08.44.077,Serial_Dependence_U,2023.2.3,Win32,59.88023952,,,,,,,,,,,,2998.0868,3,2998.087,,,,3000.8368,3001.3358,3000.3203,3000.8367,2999.1036,140,3000.3202,3001.3358,3001.8358,3001.8359,3003.4865,1147.7,3003.4867,3,3004.4851,3,18,180,31,1,1.2,0.7,Time
,,670596,001,F,22,2025-04-23_19h08.44.077,Serial_Dependence_U,2023.2.3,Win32,59.88023952,,,,,,,,,,,,3004.4855,3,3004.4856,,,,3007.2356,3007.7349,3006.7189,3007.2355,3005.5029,165,3006.7188,3007.7349,3008.2351,3008.2351,3009.8356,1126.7,3009.8358,2,3010.8347,3,19,181,49,1,1.2,0.7,Time
,,670596,001,F,22,2025-04-23_19h08.44.077,Serial_Dependence_U,2023.2.3,Win32,59.88023952,,,,,,,,,,,,3010.8353,3,3010.8355,,,,3013.568,3014.0673,3013.0513,3013.5679,3011.8352,147,3013.0512,3014.0673,3014.5674,3014.5675,3016.2505,1148.4,3016.2506,3,3017.2502,3,20,182,4,1,1.2,0.3,Time
,,670596,001,F,22,2025-04-23_19h08.44.077,Serial_Dependence_U,2023.2.3,Win32,59.88023952,,,,,,,,,,,,3017.2505,3,3017.2505,,,,3020.3011,3020.8002,3019.7837,3020.301,3018.2674,0,3019.7836,3020.8003,3021.3,3021.3001,3023.0167,1244.5,3023.0168,2,3024.0161,3,21,183,34,1,1.5,0.7,Time
,,670596,001,F,22,2025-04-23_19h08.44.077,Serial_Dependence_U,2023.2.3,Win32,59.88023952,,,,,,,,,,,,3024.0166,3,3024.0167,,,,3026.6491,3027.1493,3026.1329,3026.6491,3025.0168,332,3026.1328,3027.1493,3027.6489,3027.6489,3029.1996,1063.3,3029.1998,3,3030.1987,3,22,184,12,1,1.1,0.7,Time
,,670596,001,F,22,2025-04-23_19h08.44.077,Serial_Dependence_U,2023.2.3,Win32,59.88023952,,,,,,,,,,,,3030.1993,3,3030.1995,,,,3032.6485,3033.1484,3032.1323,3032.6485,3031.2165,315,3032.1323,3033.1485,3033.6481,3033.6482,3035.0821,1007.1,3035.0823,4,3036.0816,3,23,185,1,1,0.9,0.3,Time
,,670596,001,F,22,2025-04-23_19h08.44.077,Serial_Dependence_U,2023.2.3,Win32,59.88023952,,,,,,,,,,,,3036.0822,3,3036.0824,,,,3038.7317,3039.231,3038.2156,3038.7316,3037.0988,10,3038.2154,3039.231,3039.7308,3039.7308,3041.6974,1299.6,3041.6976,4,3042.697,3,24,186,21,1,1.1,0.3,Time
,,670596,001,F,22,2025-04-23_19h08.44.077,Serial_Dependence_U,2023.2.3,Win32,59.88023952,,,,,,,,,,,,3042.6976,3,3042.6977,,,,3045.8469,3046.3464,3045.3309,3045.8468,3043.7145,171,3045.3308,3046.3465,3046.8465,3046.8467,3048.7468,1390.7,3048.7469,2,3049.746,3,25,187,53,1,1.6,0.7,Time
,,670596,001,F,22,2025-04-23_19h08.44.077,Serial_Dependence_U,2023.2.3,Win32,59.88023952,,,,,,,,,,,,3049.7465,3,3049.7466,,,,3052.6799,3053.179,3052.1633,3052.6798,3050.7468,47,3052.1631,3053.1791,3053.679,3053.6791,3055.6624,1422.1,3055.6626,3,3056.662,3,26,188,6,1,1.4,0.3,Time
,,670596,001,F,22,2025-04-23_19h08.44.077,Serial_Dependence_U,2023.2.3,Win32,59.88023952,,,,,,,,,,,,3056.6624,3,3056.6626,,,,3059.7956,3060.2945,3059.2785,3059.7955,3057.6627,101,3059.2785,3060.2945,3060.7947,3060.7947,3063.0122,1688.1,3063.0124,4,3064.0107,3,27,189,35,1,1.6,0.7,Time
,,670596,001,F,22,2025-04-23_19h08.44.077,Serial_Dependence_U,2023.2.3,Win32,59.88023952,,,,,,,,,,,,3064.0111,3,3064.0112,,,,3067.0615,3067.5602,3066.5447,3067.0614,3065.0276,93,3066.5446,3067.5602,3068.0605,3068.0606,3069.7434,1329.5,3069.7436,2,3070.7436,3,28,190,43,1,1.5,0.3,Time
,,670596,001,F,22,2025-04-23_19h08.44.077,Serial_Dependence_U,2023.2.3,Win32,59.88023952,,,,,,,,,,,,3070.744,3,3070.7443,,,,3073.6932,3074.1931,3073.1771,3073.6931,3071.76,162,3073.177,3074.1931,3074.6931,3074.6931,3076.7426,1466.3,3076.7427,3,3077.7421,3,29,191,24,1,1.4,0.3,Time
,,670596,001,F,22,2025-04-23_19h08.44.077,Serial_Dependence_U,2023.2.3,Win32,59.88023952,,,,,,,,,,,,3077.7426,3,3077.7427,,,,3080.6924,3081.192,3080.1758,3080.6923,3078.7592,91,3080.1756,3081.192,3081.6919,3081.692,3083.7096,1381.7,3083.7099,3,3084.7085,3,30,192,33,1,1.4,0.7,Time
,,670596,001,F,22,2025-04-23_19h08.44.077,Serial_Dependence_U,2023.2.3,Win32,59.88023952,,,,,,,,,,,,3084.709,3,3084.7093,,,,3087.1585,3087.6576,3086.6414,3087.1584,3085.7254,300,3086.6414,3087.6576,3088.1576,3088.1577,3089.6413,973.5,3089.6415,4,3090.6403,3,31,193,10,1,0.9,0.7,Time
,,670596,001,F,22,2025-04-23_19h08.44.077,Serial_Dependence_U,2023.2.3,Win32,59.88023952,,,,,,,,,,,,3090.6406,3,3090.6408,,,,3093.7911,3094.2899,3093.2744,3093.791,3091.6574,220,3093.2743,3094.2899,3094.7901,3094.7901,3096.7571,1514.4,3096.7574,2,3097.7565,3,32,194,17,1,1.6,0.7,Time
,,670596,001,F,22,2025-04-23_19h08.44.077,Serial_Dependence_U,2023.2.3,Win32,59.88023952,,,,,,,,,,,,3097.7569,3,3097.7571,,,,3100.3905,3100.8892,3099.8731,3100.3903,3098.7574,38,3099.873,3100.8893,3101.3894,3101.3895,3103.19,1226.4,3103.1901,4,3104.1888,3,33,195,30,1,1.1,0.7,Time
,,670596,001,F,22,2025-04-23_19h08.44.077,Serial_Dependence_U,2023.2.3,Win32,59.88023952,,,,,,,,,,,,3104.1891,3,3104.1892,,,,3106.9386,3107.4384,3106.4234,3106.9385,3105.2059,285,3106.4232,3107.4384,3107.9381,3107.9381,3109.5891,1220.3,3109.5894,3,3110.5877,3,34,196,22,1,1.2,0.3,Time
,,670596,001,F,22,2025-04-23_19h08.44.077,Serial_Dependence_U,2023.2.3,Win32,59.88023952,,,,,,,,,,,,3110.5881,3,3110.5882,,,,3113.5058,3114.004,3113.0045,3113.5057,3111.5889,117,3113.0044,3114.0041,3114.5041,3114.5041,3116.4376,1380,3116.4378,3,3117.4373,3,35,197,51,1,1.4,0.7,Time
,,670596,001,F,22,2025-04-23_19h08.44.077,Serial_Dependence_U,2023.2.3,Win32,59.88023952,,,,,,,,,,,,3117.4377,3,3117.4378,,,,3119.8702,3120.3699,3119.3546,3119.8701,3118.4381,302,3119.3545,3120.3699,3120.8698,3120.8698,3122.2867,925.4,3122.2868,3,3123.2864,3,36,198,19,1,0.9,0.3,Time
,,670596,001,F,22,2025-04-23_19h08.44.077,Serial_Dependence_U,2023.2.3,Win32,59.88023952,,,,,,,,,,,,3123.2868,3,3123.2868,,,,3126.1365,3126.636,3125.6203,3126.1364,3124.3037,231,3125.6203,3126.636,3127.1357,3127.1357,3128.9694,1287,3128.9696,3,3129.9688,3,37,199,14,1,1.3,0.7,Time
,,670596,001,F,22,2025-04-23_19h08.44.077,Serial_Dependence_U,2023.2.3,Win32,59.88023952,,,,,,,,,,,,3129.9695,3,3129.9696,,,,3132.3024,3132.8019,3131.7855,3132.3024,3130.9695,128,3131.7855,3132.8019,3133.3018,3133.3018,3134.8024,1005.8,3134.8027,4,3135.8015,3,38,200,18,1,0.8,0.3,Time
,,670596,001,F,22,2025-04-23_19h08.44.077,Serial_Dependence_U,2023.2.3,Win32,59.88023952,,,,,,,,,,,,3135.802,3,3135.8022,,,,3138.3524,3138.8513,3137.8357,3138.3523,3136.8188,61,3137.8356,3138.8513,3139.3514,3139.3515,3141.385,1345.5,3141.3852,5,3142.3842,3,39,201,20,1,1,0.3,Time
,,670596,001,F,22,2025-04-23_19h08.44.077,Serial_Dependence_U,2023.2.3,Win32,59.88023952,,,,,,,,,,,,3142.3848,3,3142.385,,,,3145.4342,3145.9335,3144.9169,3145.4341,3143.4005,275,3144.9169,3145.9336,3146.4332,3146.4332,3148.334,1347.7,3148.3342,2,3149.333,3,40,202,52,1,1.5,0.7,Time
,,670596,001,F,22,2025-04-23_19h08.44.077,Serial_Dependence_U,2023.2.3,Win32,59.88023952,,,,,,,,,,,,3149.3335,3,3149.3336,,,,3152.1665,3152.666,3151.6661,3152.1664,3150.35,226,3151.666,3152.666,3153.1655,3153.1655,3155.1664,1380.2,3155.1666,4,3156.1657,3,41,203,5,1,1.3,0.3,Time
,,670596,001,F,22,2025-04-23_19h08.44.077,Serial_Dependence_U,2023.2.3,Win32,59.88023952,,,,,,,,,,,,3156.1663,3,3156.1665,,,,3158.7993,3159.2983,3158.2825,3158.7992,3157.1662,5,3158.2824,3159.2983,3159.7985,3159.7986,3161.7813,1427.1,3161.7815,4,3162.7811,3,42,204,3,1,1.1,0.3,Time
,,670596,001,F,22,2025-04-23_19h08.44.077,Serial_Dependence_U,2023.2.3,Win32,59.88023952,,,,,,,,,,,,3162.7815,3,3162.7818,,,,3165.6316,3166.1308,3165.115,3165.6316,3163.7982,37,3165.1149,3166.1308,3166.6307,3166.6307,3168.6145,1426.7,3168.6147,4,3169.6136,3,43,205,41,1,1.3,0.3,Time
,,670596,001,F,22,2025-04-23_19h08.44.077,Serial_Dependence_U,2023.2.3,Win32,59.88023952,,,,,,,,,,,,3169.6139,3,3169.6139,,,,3172.164,3172.663,3171.6473,3172.1639,3170.6311,134,3171.6472,3172.663,3173.1628,3173.1629,3174.7962,1002.8,3174.7965,3,3175.7962,3,44,206,2,1,1,0.3,Time
,,670596,001,F,22,2025-04-23_19h08.44.077,Serial_Dependence_U,2023.2.3,Win32,59.88023952,,,,,,,,,,,,3175.7965,3,3175.7967,,,,3178.9462,3179.4458,3178.43,3178.9461,3176.8136,256,3178.4299,3179.4458,3179.9457,3179.9457,3182.1963,1625.7,3182.1964,3,3183.1951,3,45,207,44,1,1.6,0.3,Time
,,670596,001,F,22,2025-04-23_19h08.44.077,Serial_Dependence_U,2023.2.3,Win32,59.88023952,,,,,,,,,,,,3183.1956,3,3183.1957,,,,3185.8456,3186.3449,3185.3282,3185.8456,3184.2124,327,3185.3282,3186.3449,3186.8449,3186.845,3188.5279,1095.5,3188.5281,3,3189.5278,3,46,208,39,1,1.1,0.3,Time
,,670596,001,F,22,2025-04-23_19h08.44.077,Serial_Dependence_U,2023.2.3,Win32,59.88023952,,,,,,,,,,,,3189.5283,3,3189.5284,,,,3191.8618,3192.3608,3191.3448,3191.8616,3190.5441,74,3191.3447,3192.3609,3192.8607,3192.8608,3194.6607,1094.4,3194.661,5,3195.6604,3,47,209,36,1,0.8,0.3,Time
,,670596,001,F,22,2025-04-23_19h08.44.077,Serial_Dependence_U,2023.2.3,Win32,59.88023952,,,,,,,,,,,,3195.6607,3,3195.6609,,,,3198.5939,3199.0936,3198.0771,3198.5938,3196.6613,257,3198.077,3199.0936,3199.5934,3199.5935,3201.1101,1004,3201.1102,2,3202.1093,3,48,210,42,1,1.4,0.3,Time
,,670596,001,F,22,2025-04-23_19h08.44.077,Serial_Dependence_U,2023.2.3,Win32,59.88023952,,,,,,,,,,,,3202.1098,3,3202.1099,,,,3204.6596,3205.1592,3204.143,3204.6595,3203.1276,233,3204.1428,3205.1592,3205.6593,3205.6593,3207.5419,1284.1,3207.542,4,3208.5418,3,49,211,38,1,1,0.3,Time
,,670596,001,F,22,2025-04-23_19h08.44.077,Serial_Dependence_U,2023.2.3,Win32,59.88023952,,,,,,,,,,,,3208.5421,3,3208.5423,,,,3211.6916,3212.1922,3211.1755,3211.6915,3209.5592,317,3211.1754,3212.1922,3212.6911,3212.6912,3214.5581,1300,3214.5583,2,3215.5582,3,50,212,26,1,1.6,0.3,Time
,,670596,001,F,22,2025-04-23_19h08.44.077,Serial_Dependence_U,2023.2.3,Win32,59.88023952,,,,,,,,,,,,3215.5586,3,3215.5587,,,,3218.3916,3218.8908,3217.8908,3218.3916,3216.5747,172,3217.8907,3218.8908,3219.3904,3219.3905,3221.4576,1285.9,3221.4578,3,3222.4566,3,51,213,32,1,1.3,0.7,Time
,,670596,001,F,22,2025-04-23_19h08.44.077,Serial_Dependence_U,2023.2.3,Win32,59.88023952,,,,,,,,,,,,3222.4568,3,3222.457,,,,3224.9897,3225.4894,3224.4738,3224.9896,3223.457,77,3224.4737,3225.4894,3225.9898,3225.9898,3227.7402,1159.6,3227.7405,4,3228.7392,3,52,214,29,1,1,0.7,Time
,,670596,001,F,22,2025-04-23_19h08.44.077,Serial_Dependence_U,2023.2.3,Win32,59.88023952,,,,,,,,,,,,3228.7398,3,3228.7399,,,,3231.673,3232.1718,3231.1724,3231.6729,3229.757,298,3231.1722,3232.1718,3232.6731,3232.6732,3234.9557,1672.5,3234.9561,4,3235.9551,3,53,215,15,1,1.4,0.7,Time
,,670596,001,F,22,2025-04-23_19h08.44.077,Serial_Dependence_U,2023.2.3,Win32,59.88023952,,,,,,,,,,,,3235.9555,4,3784.5548,s,548.5839,,3787.2997,3787.7986,3786.7825,3787.2996,3785.5663,227,3786.7825,3787.7987,3788.2986,3788.2987,3790.6989,1394.3,3790.6991,4,3791.6985,4,0,216,31,1,1.2,0.7,Time
,,670596,001,F,22,2025-04-23_19h08.44.077,Serial_Dependence_U,2023.2.3,Win32,59.88023952,,,,,,,,,,,,3791.6991,4,3791.7009,,,,3794.1486,3794.6476,3793.632,3794.1485,3792.7155,210,3793.6319,3794.6477,3795.1477,3795.1477,3796.598,1063.4,3796.5982,4,3797.5974,4,1,217,19,1,0.9,0.3,Time
,,670596,001,F,22,2025-04-23_19h08.44.077,Serial_Dependence_U,2023.2.3,Win32,59.88023952,,,,,,,,,,,,3797.5979,4,3797.5981,,,,3800.7477,3801.247,3800.2313,3800.7476,3798.6147,128,3800.2312,3801.247,3801.7473,3801.7474,3803.7309,1518.1,3803.7311,2,3804.7297,4,2,218,35,1,1.6,0.7,Time
,,670596,001,F,22,2025-04-23_19h08.44.077,Serial_Dependence_U,2023.2.3,Win32,59.88023952,,,,,,,,,,,,3804.7301,4,3804.7302,,,,3807.4803,3807.9796,3806.9637,3807.4802,3805.7474,339,3806.9635,3807.9797,3808.4797,3808.4797,3810.2134,1182.4,3810.2136,3,3811.2123,4,3,219,4,1,1.2,0.3,Time
,,670596,001,F,22,2025-04-23_19h08.44.077,Serial_Dependence_U,2023.2.3,Win32,59.88023952,,,,,,,,,,,,3811.2128,4,3811.2129,,,,3814.3457,3814.8451,3813.8298,3814.3456,3812.2129,323,3813.8297,3814.8451,3815.3452,3815.3453,3817.5787,1666.8,3817.5788,3,3818.5783,4,4,220,26,1,1.6,0.3,Time
,,670596,001,F,22,2025-04-23_19h08.44.077,Serial_Dependence_U,2023.2.3,Win32,59.88023952,,,,,,,,,,,,3818.5789,4,3818.5791,,,,3821.1288,3821.6279,3820.6116,3821.1287,3819.595,226,3820.6116,3821.6279,3822.1278,3822.1278,3824.3281,1260.9,3824.3283,4,3825.3273,4,5,221,29,1,1,0.7,Time
,,670596,001,F,22,2025-04-23_19h08.44.077,Serial_Dependence_U,2023.2.3,Win32,59.88023952,,,,,,,,,,,,3825.3278,4,3825.328,,,,3828.3611,3828.86,3827.8443,3828.3611,3826.3279,176,3827.8442,3828.8601,3829.3601,3829.3601,3831.3096,1632.3,3831.3098,4,3832.3092,4,6,222,34,1,1.5,0.7,Time
,,670596,001,F,22,2025-04-23_19h08.44.077,Serial_Dependence_U,2023.2.3,Win32,59.88023952,,,,,,,,,,,,3832.3095,4,3832.3095,,,,3835.2433,3835.7425,3834.7428,3835.2432,3833.3264,84,3834.7427,3835.7425,3836.2421,3836.2421,3838.2922,1533.9,3838.2924,4,3839.2918,4,7,223,42,1,1.4,0.3,Time
,,670596,001,F,22,2025-04-23_19h08.44.077,Serial_Dependence_U,2023.2.3,Win32,59.88023952,,,,,,,,,,,,3839.2924,4,3839.2925,,,,3841.9256,3842.4246,3841.4096,3841.9255,3840.2929,89,3841.4095,3842.4246,3842.9248,3842.9248,3844.8586,1371.8,3844.8587,4,3845.8575,4,8,224,3,1,1.1,0.3,Time
,,670596,001,F,22,2025-04-23_19h08.44.077,Serial_Dependence_U,2023.2.3,Win32,59.88023952,,,,,,,,,,,,3845.8577,4,3845.8578,,,,3848.5913,3849.0907,3848.0753,3848.5913,3846.8583,355,3848.0752,3849.0907,3849.5906,3849.5907,3851.3417,1229.6,3851.3419,3,3852.3406,4,9,225,13,1,1.2,0.7,Time
,,670596,001,F,22,2025-04-23_19h08.44.077,Serial_Dependence_U,2023.2.3,Win32,59.88023952,,,,,,,,,,,,3852.341,4,3852.3412,,,,3854.7908,3855.2899,3854.2743,3854.7908,3853.3575,105,3854.2742,3855.2901,3855.7898,3855.7899,3857.4737,1174.3,3857.4739,5,3858.4729,4,10,226,28,1,0.9,0.7,Time
,,670596,001,F,22,2025-04-23_19h08.44.077,Serial_Dependence_U,2023.2.3,Win32,59.88023952,,,,,,,,,,,,3858.4736,4,3858.4737,,,,3861.3067,3861.8056,3860.7897,3861.3066,3859.4735,17,3860.7896,3861.8056,3862.3057,3862.3058,3864.3233,1184.2,3864.3236,2,3865.3219,4,11,227,32,1,1.3,0.7,Time
,,670596,001,F,22,2025-04-23_19h08.44.077,Serial_Dependence_U,2023.2.3,Win32,59.88023952,,,,,,,,,,,,3865.3224,4,3865.3227,,,,3867.8397,3868.3378,3867.3389,3867.8396,3866.3228,138,3867.3388,3868.3378,3868.8387,3868.8387,3870.4722,1149.8,3870.4725,4,3871.4712,4,12,228,11,1,1,0.7,Time
,,670596,001,F,22,2025-04-23_19h08.44.077,Serial_Dependence_U,2023.2.3,Win32,59.88023952,,,,,,,,,,,,3871.4719,4,3871.4721,,,,3874.3213,3874.8205,3873.8051,3874.3212,3872.4884,90,3873.8049,3874.8205,3875.3206,3875.3206,3877.6206,1382,3877.6207,4,3878.62,4,13,229,50,1,1.3,0.7,Time
,,670596,001,F,22,2025-04-23_19h08.44.077,Serial_Dependence_U,2023.2.3,Win32,59.88023952,,,,,,,,,,,,3878.6203,4,3878.6205,,,,3881.2705,3881.7698,3880.7539,3881.2705,3879.6369,112,3880.7538,3881.7699,3882.2698,3882.27,3883.9202,1211.6,3883.9205,4,3884.9191,4,14,230,12,1,1.1,0.7,Time
,,670596,001,F,22,2025-04-23_19h08.44.077,Serial_Dependence_U,2023.2.3,Win32,59.88023952,,,,,,,,,,,,3884.9195,4,3884.9197,,,,3887.6528,3888.1521,3887.1366,3887.6528,3885.9197,21,3887.1366,3888.1521,3888.6522,3888.6523,3890.3193,1089.6,3890.3196,2,3891.3182,4,15,231,22,1,1.2,0.3,Time
,,670596,001,F,22,2025-04-23_19h08.44.077,Serial_Dependence_U,2023.2.3,Win32,59.88023952,,,,,,,,,,,,3891.3185,4,3891.3186,,,,3894.4525,3894.9509,3893.9357,3894.4524,3892.3193,166,3893.9355,3894.951,3895.4516,3895.4516,3897.3513,1389.3,3897.3515,2,3898.3507,4,16,232,44,1,1.6,0.3,Time
,,670596,001,F,22,2025-04-23_19h08.44.077,Serial_Dependence_U,2023.2.3,Win32,59.88023952,,,,,,,,,,,,3898.3512,4,3898.3513,,,,3901.4013,3901.9004,3900.8839,3901.4012,3899.3685,268,3900.8839,3901.9005,3902.4004,3902.4004,3904.4672,1442,3904.4673,3,3905.4664,4,17,233,25,1,1.5,0.3,Time
,,670596,001,F,22,2025-04-23_19h08.44.077,Serial_Dependence_U,2023.2.3,Win32,59.88023952,,,,,,,,,,,,3905.4668,4,3905.467,,,,3907.9009,3908.3998,3907.3998,3907.9007,3906.4837,44,3907.3997,3908.3998,3908.8995,3908.8995,3910.5001,1047.5,3910.5003,4,3911.4992,4,18,234,46,1,0.9,0.7,Time
,,670596,001,F,22,2025-04-23_19h08.44.077,Serial_Dependence_U,2023.2.3,Win32,59.88023952,,,,,,,,,,,,3911.4997,4,3911.4999,,,,3914.1324,3914.632,3913.616,3914.1323,3912.5,264,3913.6159,3914.632,3915.132,3915.132,3916.833,1149.4,3916.8332,3,3917.8322,4,19,235,30,1,1.1,0.7,Time
,,670596,001,F,22,2025-04-23_19h08.44.077,Serial_Dependence_U,2023.2.3,Win32,59.88023952,,,,,,,,,,,,3917.8327,4,3917.8328,,,,3920.8653,3921.3646,3920.3482,3920.8652,3918.8326,183,3920.3481,3921.3647,3921.8643,3921.8643,3924.032,1575.3,3924.0321,4,3925.0307,4,20,236,7,1,1.5,0.3,Time
,,670596,001,F,22,2025-04-23_19h08.44.077,Serial_Dependence_U,2023.2.3,Win32,59.88023952,,,,,,,,,,,,3925.0311,4,3925.0313,,,,3927.5647,3928.0633,3927.0478,3927.5646,3926.0314,232,3927.0477,3928.0634,3928.5633,3928.5633,3930.6637,1201.9,3930.6638,4,3931.6635,4,21,237,20,1,1,0.3,Time
,,670596,001,F,22,2025-04-23_19h08.44.077,Serial_Dependence_U,2023.2.3,Win32,59.88023952,,,,,,,,,,,,3931.6639,4,3931.664,,,,3934.214,3934.7128,3933.6967,3934.2139,3932.6804,291,3933.6966,3934.7128,3935.2128,3935.2129,3936.8131,1085.2,3936.8133,4,3937.8125,4,22,238,2,1,1,0.3,Time
,,670596,001,F,22,2025-04-23_19h08.44.077,Serial_Dependence_U,2023.2.3,Win32,59.88023952,,,,,,,,,,,,3937.813,4,3937.8131,,,,3940.1459,3940.6452,3939.6289,3940.1459,3938.8137,298,3939.6289,3940.6453,3941.1451,3941.1452,3942.7126,1011.2,3942.7129,4,3943.7117,4,23,239,27,1,0.8,0.7,Time
,,670596,001,F,22,2025-04-23_19h08.44.077,Serial_Dependence_U,2023.2.3,Win32,59.88023952,,,,,,,,,,,,3943.7121,4,3943.7122,,,,3946.5619,3947.0613,3946.0456,3946.5618,3944.7286,193,3946.0455,3947.0613,3947.5609,3947.5609,3949.4113,1225,3949.4114,2,3950.4106,4,24,240,5,1,1.3,0.3,Time
,,670596,001,F,22,2025-04-23_19h08.44.077,Serial_Dependence_U,2023.2.3,Win32,59.88023952,,,,,,,,,,,,3950.4113,4,3950.4115,,,,3953.0606,3953.5606,3952.5443,3953.0605,3951.4284,178,3952.5442,3953.5606,3954.06,3954.06,3955.844,1294.8,3955.8443,4,3956.8433,4,25,241,48,1,1.1,0.7,Time
,,670596,001,F,22,2025-04-23_19h08.44.077,Serial_Dependence_U,2023.2.3,Win32,59.88023952,,,,,,,,,,,,3956.8439,4,3956.8443,,,,3959.194,3959.693,3958.6772,3959.1939,3957.8608,15,3958.6771,3959.693,3960.1931,3960.1931,3961.2929,802.1,3961.2931,3,3962.2926,4,26,242,45,1,0.8,0.7,Time
,,670596,001,F,22,2025-04-23_19h08.44.077,Serial_Dependence_U,2023.2.3,Win32,59.88023952,,,,,,,,,,,,3962.2931,4,3962.2932,,,,3965.4426,3965.9419,3964.9259,3965.4425,3963.3103,156,3964.9258,3965.9419,3966.4416,3966.4417,3968.5914,1684.1,3968.5915,4,3969.5913,4,27,243,8,1,1.6,0.3,Time
,,670596,001,F,22,2025-04-23_19h08.44.077,Serial_Dependence_U,2023.2.3,Win32,59.88023952,,,,,,,,,,,,3969.5917,4,3969.5918,,,,3972.6255,3973.1244,3972.1248,3972.6254,3970.6083,26,3972.1248,3973.1245,3973.6244,3973.6244,3975.5412,1390.2,3975.5415,2,3976.5408,4,28,244,43,1,1.5,0.3,Time
,,670596,001,F,22,2025-04-23_19h08.44.077,Serial_Dependence_U,2023.2.3,Win32,59.88023952,,,,,,,,,,,,3976.5413,4,3976.5415,,,,3979.0745,3979.5732,3978.5574,3979.0744,3977.5416,229,3978.5573,3979.5732,3980.0735,3980.0736,3981.7238,1131.8,3981.7239,4,3982.7232,4,29,245,38,1,1,0.3,Time
,,670596,001,F,22,2025-04-23_19h08.44.077,Serial_Dependence_U,2023.2.3,Win32,59.88023952,,,,,,,,,,,,3982.7236,4,3982.7237,,,,3985.5573,3986.0561,3985.0401,3985.5571,3983.7241,145,3985.04,3986.0561,3986.5558,3986.5558,3988.3395,1299.7,3988.3398,3,3989.339,4,30,246,41,1,1.3,0.3,Time
,,670596,001,F,22,2025-04-23_19h08.44.077,Serial_Dependence_U,2023.2.3,Win32,59.88023952,,,,,,,,,,,,3989.3396,4,3989.3398,,,,3991.7726,3992.2719,3991.2568,3991.7725,3990.3394,217,3991.2566,3992.2719,3992.7715,3992.7716,3994.8386,1060.4,3994.8388,4,3995.8379,4,31,247,1,1,0.9,0.3,Time
,,670596,001,F,22,2025-04-23_19h08.44.077,Serial_Dependence_U,2023.2.3,Win32,59.88023952,,,,,,,,,,,,3995.8384,4,3995.8385,,,,3998.7718,3999.2709,3998.2553,3998.7717,3996.8388,353,3998.2552,3999.2709,3999.7712,3999.7712,4001.9874,1632.5,4001.9876,4,4002.9872,4,32,248,24,1,1.4,0.3,Time
,,670596,001,F,22,2025-04-23_19h08.44.077,Serial_Dependence_U,2023.2.3,Win32,59.88023952,,,,,,,,,,,,4002.9875,4,4002.9877,,,,4005.6377,4006.1366,4005.1211,4005.6376,4004.0054,299,4005.1211,4006.1366,4006.6373,4006.6373,4008.3373,1114.2,4008.3374,3,4009.3365,4,33,249,21,1,1.1,0.3,Time
,,670596,001,F,22,2025-04-23_19h08.44.077,Serial_Dependence_U,2023.2.3,Win32,59.88023952,,,,,,,,,,,,4009.3369,4,4009.3369,,,,4011.9699,4012.469,4011.4532,4011.9697,4010.3373,106,4011.4531,4012.4691,4012.9691,4012.9692,4014.6188,1128.4,4014.6189,3,4015.6184,4,34,250,39,1,1.1,0.3,Time
,,670596,001,F,22,2025-04-23_19h08.44.077,Serial_Dependence_U,2023.2.3,Win32,59.88023952,,,,,,,,,,,,4015.6188,4,4015.6189,,,,4018.5694,4019.0684,4018.0527,4018.5693,4016.6365,137,4018.0526,4019.0685,4019.5683,4019.5683,4021.4352,1337.2,4021.4354,3,4022.4343,4,35,251,33,1,1.4,0.7,Time
,,670596,001,F,22,2025-04-23_19h08.44.077,Serial_Dependence_U,2023.2.3,Win32,59.88023952,,,,,,,,,,,,4022.435,4,4022.4351,,,,4024.8848,4025.3842,4024.3685,4024.8847,4023.4517,75,4024.3684,4025.3844,4025.8838,4025.8838,4027.434,979.9,4027.4342,4,4028.4338,4,36,252,37,1,0.9,0.3,Time
,,670596,001,F,22,2025-04-23_19h08.44.077,Serial_Dependence_U,2023.2.3,Win32,59.88023952,,,,,,,,,,,,4028.4343,4,4028.4345,,,,4030.784,4031.2836,4030.2683,4030.7839,4029.4504,289,4030.2681,4031.2836,4031.783,4031.7831,4033.1171,799.5,4033.1173,3,4034.1166,4,37,253,36,1,0.8,0.3,Time
,,670596,001,F,22,2025-04-23_19h08.44.077,Serial_Dependence_U,2023.2.3,Win32,59.88023952,,,,,,,,,,,,4034.1171,4,4034.1174,,,,4036.95,4037.4489,4036.4335,4036.95,4035.1168,266,4036.4334,4037.4489,4037.949,4037.949,4039.5993,1058.6,4039.5994,2,4040.5991,4,38,254,14,1,1.3,0.7,Time
,,670596,001,F,22,2025-04-23_19h08.44.077,Serial_Dependence_U,2023.2.3,Win32,59.88023952,,,,,,,,,,,,4040.5996,4,4040.5997,,,,4043.5326,4044.0322,4043.0159,4043.5325,4041.6001,331,4043.0159,4044.0323,4044.5314,4044.5314,4046.7487,1457.4,4046.7489,3,4047.7476,4,39,255,15,1,1.4,0.7,Time
,,670596,001,F,22,2025-04-23_19h08.44.077,Serial_Dependence_U,2023.2.3,Win32,59.88023952,,,,,,,,,,,,4047.7481,4,4047.7483,,,,4050.6979,4051.1973,4050.1815,4050.6978,4048.7653,134,4050.1814,4051.1973,4051.6973,4051.6973,4053.7804,1450.8,4053.7805,3,4054.7803,4,40,256,6,1,1.4,0.3,Time
,,670596,001,F,22,2025-04-23_19h08.44.077,Serial_Dependence_U,2023.2.3,Win32,59.88023952,,,,,,,,,,,,4054.7807,4,4054.7809,,,,4057.9138,4058.413,4057.3969,4057.9137,4055.7813,154,4057.3968,4058.4131,4058.9132,4058.9133,4061.1301,1615,4061.1303,3,4062.1291,4,41,257,53,1,1.6,0.7,Time
,,670596,001,F,22,2025-04-23_19h08.44.077,Serial_Dependence_U,2023.2.3,Win32,59.88023952,,,,,,,,,,,,4062.1297,4,4062.1301,,,,4064.4795,4064.9789,4063.9634,4064.4795,4063.1461,271,4063.9633,4064.979,4065.4788,4065.4788,4066.9953,1000.8,4066.9955,4,4067.995,4,42,258,18,1,0.8,0.3,Time
,,670596,001,F,22,2025-04-23_19h08.44.077,Serial_Dependence_U,2023.2.3,Win32,59.88023952,,,,,,,,,,,,4067.9953,4,4067.9954,,,,4071.0454,4071.5452,4070.5288,4071.0452,4069.012,26,4070.5287,4071.5452,4072.0447,4072.0447,4074.1116,1385.1,4074.1118,2,4075.111,4,43,259,52,1,1.5,0.7,Time
,,670596,001,F,22,2025-04-23_19h08.44.077,Serial_Dependence_U,2023.2.3,Win32,59.88023952,,,,,,,,,,,,4075.1115,4,4075.1117,,,,4078.2277,4078.7273,4077.7273,4078.2277,4076.1114,22,4077.7273,4078.7273,4079.2269,4079.227,4081.1942,1460,4081.1944,2,4082.1934,4,44,260,17,1,1.6,0.7,Time
,,670596,001,F,22,2025-04-23_19h08.44.077,Serial_Dependence_U,2023.2.3,Win32,59.88023952,,,,,,,,,,,,4082.194,4,4082.1941,,,,4084.5268,4085.0261,4084.0114,4084.5267,4083.1939,107,4084.0113,4085.0263,4085.5259,4085.526,4087.4932,1196.5,4087.4933,5,4088.4926,4,45,261,9,1,0.8,0.7,Time
,,670596,001,F,22,2025-04-23_19h08.44.077,Serial_Dependence_U,2023.2.3,Win32,59.88023952,,,,,,,,,,,,4088.4929,4,4088.4931,,,,4091.5265,4092.0253,4091.0093,4091.5264,4089.4932,50,4091.0092,4092.0254,4092.5253,4092.5253,4094.7919,1253.9,4094.7922,2,4095.7918,4,46,262,16,1,1.5,0.7,Time
,,670596,001,F,22,2025-04-23_19h08.44.077,Serial_Dependence_U,2023.2.3,Win32,59.88023952,,,,,,,,,,,,4095.7925,4,4095.7928,,,,4098.1418,4098.6408,4097.6253,4098.1418,4096.8099,240,4097.6252,4098.6408,4099.1411,4099.1412,4100.3417,701.9,4100.3419,2,4101.3409,4,47,263,0,1,0.8,0.3,Time
,,670596,001,F,22,2025-04-23_19h08.44.077,Serial_Dependence_U,2023.2.3,Win32,59.88023952,,,,,,,,,,,,4101.3417,4,4101.3419,,,,4103.7746,4104.2739,4103.2573,4103.7745,4102.342,279,4103.2572,4104.2739,4104.7735,4104.7736,4106.5573,1210.9,4106.5575,5,4107.5566,4,48,264,10,1,0.9,0.7,Time
,,670596,001,F,22,2025-04-23_19h08.44.077,Serial_Dependence_U,2023.2.3,Win32,59.88023952,,,,,,,,,,,,4107.5571,4,4107.5572,,,,4110.5065,4111.006,4109.9903,4110.5065,4108.5737,350,4109.9902,4111.006,4111.5058,4111.5058,4113.3231,1283.6,4113.3234,2,4114.3225,4,49,265,51,1,1.4,0.7,Time
,,670596,001,F,22,2025-04-23_19h08.44.077,Serial_Dependence_U,2023.2.3,Win32,59.88023952,,,,,,,,,,,,4114.3231,4,4114.3233,,,,4117.0565,4117.5555,4116.539,4117.0562,4115.3229,153,4116.5389,4117.5555,4118.0554,4118.0554,4119.7896,1273.8,4119.7898,4,4120.7887,4,50,266,40,1,1.2,0.3,Time
,,670596,001,F,22,2025-04-23_19h08.44.077,Serial_Dependence_U,2023.2.3,Win32,59.88023952,,,,,,,,,,,,4120.7892,4,4120.7893,,,,4123.338,4123.8378,4122.8217,4123.3379,4121.8059,143,4122.8216,4123.8378,4124.3375,4124.3375,4126.1883,718.9,4126.1885,2,4127.1879,4,51,267,47,1,1,0.7,Time
,,670596,001,F,22,2025-04-23_19h08.44.077,Serial_Dependence_U,2023.2.3,Win32,59.88023952,,,,,,,,,,,,4127.1884,4,4127.1886,,,,4130.0376,4130.5367,4129.5214,4130.0376,4128.2051,43,4129.5212,4130.5367,4131.0367,4131.0367,4132.6711,1231.4,4132.6713,2,4133.67,4,52,268,23,1,1.3,0.3,Time
,,670596,001,F,22,2025-04-23_19h08.44.077,Serial_Dependence_U,2023.2.3,Win32,59.88023952,,,,,,,,,,,,4133.6707,4,4133.6709,,,,4136.4039,4136.9028,4135.8875,4136.4037,4134.6868,297,4135.8874,4136.9028,4137.4027,4137.4027,4139.4201,1417.6,4139.4204,4,4140.4193,4,53,269,49,1,1.2,0.7,Time
,,670596,001,F,22,2025-04-23_19h08.44.077,Serial_Dependence_U,2023.2.3,Win32,59.88023952,,,,,,,,,,,,4140.4198,5,4564.952,s,424.5181,,4567.98,4568.4791,4567.4794,4567.9799,4565.9632,209,4567.4794,4568.4791,4568.9794,4568.9794,4570.8627,1447.9,4570.8629,3,4571.8618,5,0,270,43,1,1.5,0.3,Time
,,670596,001,F,22,2025-04-23_19h08.44.077,Serial_Dependence_U,2023.2.3,Win32,59.88023952,,,,,,,,,,,,4571.8622,5,4571.864,,,,4574.6118,4575.1121,4574.0962,4574.6116,4572.8787,309,4574.0961,4575.1121,4575.6114,4575.6115,4577.478,1283.8,4577.4781,4,4578.4777,5,1,271,31,1,1.2,0.7,Time
,,670596,001,F,22,2025-04-23_19h08.44.077,Serial_Dependence_U,2023.2.3,Win32,59.88023952,,,,,,,,,,,,4578.478,5,4578.478,,,,4581.5278,4582.0275,4581.0116,4581.5278,4579.4951,243,4581.0115,4582.0275,4582.5273,4582.5273,4584.7277,1615.3,4584.7279,4,4585.7268,5,2,272,16,1,1.5,0.7,Time
,,670596,001,F,22,2025-04-23_19h08.44.077,Serial_Dependence_U,2023.2.3,Win32,59.88023952,,,,,,,,,,,,4585.7273,5,4585.7275,,,,4588.1444,4588.6431,4587.6434,4588.1444,4586.7276,190,4587.6433,4588.6432,4589.1432,4589.1433,4590.6941,1067.7,4590.6943,4,4591.6928,5,3,273,46,1,0.9,0.7,Time
,,670596,001,F,22,2025-04-23_19h08.44.077,Serial_Dependence_U,2023.2.3,Win32,59.88023952,,,,,,,,,,,,4591.6934,5,4591.6935,,,,4594.026,4594.5258,4593.5102,4594.0259,4592.7094,251,4593.51,4594.5258,4595.0259,4595.0259,4596.5431,1037.9,4596.5433,4,4597.5422,5,4,274,36,1,0.8,0.3,Time
,,670596,001,F,22,2025-04-23_19h08.44.077,Serial_Dependence_U,2023.2.3,Win32,59.88023952,,,,,,,,,,,,4597.543,5,4597.5432,,,,4600.3923,4600.8918,4599.8762,4600.3923,4598.5596,9,4599.8761,4600.8918,4601.3915,4601.3915,4603.4422,1246.8,4603.4424,3,4604.4412,5,5,275,5,1,1.3,0.3,Time
,,670596,001,F,22,2025-04-23_19h08.44.077,Serial_Dependence_U,2023.2.3,Win32,59.88023952,,,,,,,,,,,,4604.4417,5,4604.4419,,,,4607.3914,4607.8908,4606.8746,4607.3913,4605.458,2,4606.8746,4607.8908,4608.3905,4608.3906,4610.3415,1460,4610.3417,3,4611.3403,5,6,276,51,1,1.4,0.7,Time
,,670596,001,F,22,2025-04-23_19h08.44.077,Serial_Dependence_U,2023.2.3,Win32,59.88023952,,,,,,,,,,,,4611.3408,5,4611.3409,,,,4613.99,4614.4898,4613.4744,4613.9898,4612.357,116,4613.4743,4614.4899,4614.9893,4614.9893,4616.5232,1092.9,4616.5233,3,4617.5225,5,7,277,30,1,1.1,0.7,Time
,,670596,001,F,22,2025-04-23_19h08.44.077,Serial_Dependence_U,2023.2.3,Win32,59.88023952,,,,,,,,,,,,4617.5228,5,4617.5229,,,,4620.1569,4620.6554,4619.6559,4620.1567,4618.5403,179,4619.6558,4620.6554,4621.1553,4621.1554,4623.7058,1255.4,4623.7059,4,4624.7053,5,8,278,21,1,1.1,0.3,Time
,,670596,001,F,22,2025-04-23_19h08.44.077,Serial_Dependence_U,2023.2.3,Win32,59.88023952,,,,,,,,,,,,4624.7055,5,4624.7056,,,,4627.455,4627.9549,4626.9393,4627.455,4625.7221,34,4626.9392,4627.9549,4628.4546,4628.4546,4630.1882,1275.8,4630.1883,4,4631.1876,5,9,279,40,1,1.2,0.3,Time
,,670596,001,F,22,2025-04-23_19h08.44.077,Serial_Dependence_U,2023.2.3,Win32,59.88023952,,,,,,,,,,,,4631.1881,5,4631.1884,,,,4633.5222,4634.0207,4633.0213,4633.5221,4632.2053,15,4633.0213,4634.0208,4634.5204,4634.5204,4636.0041,879.4,4636.0043,4,4637.0033,5,10,280,9,1,0.8,0.7,Time
,,670596,001,F,22,2025-04-23_19h08.44.077,Serial_Dependence_U,2023.2.3,Win32,59.88023952,,,,,,,,,,,,4637.0037,5,4637.0039,,,,4639.8533,4640.3533,4639.3375,4639.8532,4638.021,217,4639.3374,4640.3534,4640.8529,4640.853,4642.5862,1162.4,4642.5863,2,4643.5863,5,11,281,32,1,1.3,0.7,Time
,,670596,001,F,22,2025-04-23_19h08.44.077,Serial_Dependence_U,2023.2.3,Win32,59.88023952,,,,,,,,,,,,4643.587,5,4643.5872,,,,4646.5193,4647.0188,4646.0032,4646.5192,4644.5872,256,4646.003,4647.0188,4647.5188,4647.5189,4649.3024,1257.8,4649.3028,2,4650.3021,5,12,282,15,1,1.4,0.7,Time
,,670596,001,F,22,2025-04-23_19h08.44.077,Serial_Dependence_U,2023.2.3,Win32,59.88023952,,,,,,,,,,,,4650.3029,5,4650.3031,,,,4653.4524,4653.9511,4652.9359,4653.4523,4651.3193,173,4652.9358,4653.9511,4654.451,4654.451,4656.4343,1530.6,4656.4345,3,4657.434,5,13,283,26,1,1.6,0.3,Time
,,670596,001,F,22,2025-04-23_19h08.44.077,Serial_Dependence_U,2023.2.3,Win32,59.88023952,,,,,,,,,,,,4657.4345,5,4657.4347,,,,4659.8681,4660.3668,4659.3518,4659.868,4658.4345,124,4659.3517,4660.3668,4660.8671,4660.8671,4662.634,1192.8,4662.6342,5,4663.6333,5,14,284,28,1,0.9,0.7,Time
,,670596,001,F,22,2025-04-23_19h08.44.077,Serial_Dependence_U,2023.2.3,Win32,59.88023952,,,,,,,,,,,,4663.6339,5,4663.6341,,,,4666.6671,4667.166,4666.1507,4666.667,4664.6343,242,4666.1507,4667.1661,4667.666,4667.666,4669.5334,1408.7,4669.5336,2,4670.5326,5,15,285,7,1,1.5,0.3,Time
,,670596,001,F,22,2025-04-23_19h08.44.077,Serial_Dependence_U,2023.2.3,Win32,59.88023952,,,,,,,,,,,,4670.5332,5,4670.5334,,,,4673.5655,4674.0656,4673.0488,4673.5655,4671.5331,17,4673.0488,4674.0656,4674.5652,4674.5652,4676.5822,1448.4,4676.5825,3,4677.5816,5,16,286,34,1,1.5,0.7,Time
,,670596,001,F,22,2025-04-23_19h08.44.077,Serial_Dependence_U,2023.2.3,Win32,59.88023952,,,,,,,,,,,,4677.5822,5,4677.5824,,,,4680.7149,4681.2147,4680.1991,4680.7148,4678.5819,58,4680.199,4681.2148,4681.7144,4681.7144,4683.6808,1429.7,4683.681,2,4684.6808,5,17,287,17,1,1.6,0.7,Time
,,670596,001,F,22,2025-04-23_19h08.44.077,Serial_Dependence_U,2023.2.3,Win32,59.88023952,,,,,,,,,,,,4684.6814,5,4684.6816,,,,4687.4309,4687.9303,4686.9145,4687.4307,4685.6981,253,4686.9144,4687.9303,4688.4299,4688.4299,4690.3809,1350.3,4690.3811,4,4691.3797,5,18,288,49,1,1.2,0.7,Time
,,670596,001,F,22,2025-04-23_19h08.44.077,Serial_Dependence_U,2023.2.3,Win32,59.88023952,,,,,,,,,,,,4691.3801,5,4691.3802,,,,4693.997,4694.4958,4693.4964,4693.9969,4692.3806,66,4693.4963,4694.4958,4694.996,4694.996,4696.63,1278.8,4696.6302,4,4697.6289,5,19,289,3,1,1.1,0.3,Time
,,670596,001,F,22,2025-04-23_19h08.44.077,Serial_Dependence_U,2023.2.3,Win32,59.88023952,,,,,,,,,,,,4697.6293,5,4697.6294,,,,4700.4625,4700.9618,4699.9459,4700.4623,4698.6298,227,4699.9458,4700.9619,4701.4619,4701.462,4703.2449,1478.2,4703.245,4,4704.2448,5,20,290,14,1,1.3,0.7,Time
,,670596,001,F,22,2025-04-23_19h08.44.077,Serial_Dependence_U,2023.2.3,Win32,59.88023952,,,,,,,,,,,,4704.2451,5,4704.2451,,,,4706.7786,4707.2772,4706.2618,4706.7785,4705.2449,321,4706.2617,4707.2773,4707.7772,4707.7772,4709.5443,1197.4,4709.5445,4,4710.5439,5,21,291,47,1,1,0.7,Time
,,670596,001,F,22,2025-04-23_19h08.44.077,Serial_Dependence_U,2023.2.3,Win32,59.88023952,,,,,,,,,,,,4710.5444,5,4710.5446,,,,4713.0939,4713.5938,4712.5781,4713.0939,4711.5611,45,4712.578,4713.5938,4714.0931,4714.0931,4715.6942,1214.7,4715.6943,4,4716.693,5,22,292,38,1,1,0.3,Time
,,670596,001,F,22,2025-04-23_19h08.44.077,Serial_Dependence_U,2023.2.3,Win32,59.88023952,,,,,,,,,,,,4716.6936,5,4716.6938,,,,4719.3432,4719.8427,4718.8263,4719.3431,4717.7103,83,4718.8262,4719.8427,4720.3425,4720.3425,4721.9098,1042.7,4721.91,2,4722.9089,5,23,293,48,1,1.1,0.7,Time
,,670596,001,F,22,2025-04-23_19h08.44.077,Serial_Dependence_U,2023.2.3,Win32,59.88023952,,,,,,,,,,,,4722.9093,5,4722.9094,,,,4725.9423,4726.4417,4725.4256,4725.9423,4723.9093,86,4725.4255,4726.4417,4726.9414,4726.9415,4728.5751,1198.9,4728.5754,2,4729.5747,5,24,294,52,1,1.5,0.7,Time
,,670596,001,F,22,2025-04-23_19h08.44.077,Serial_Dependence_U,2023.2.3,Win32,59.88023952,,,,,,,,,,,,4729.575,5,4729.5751,,,,4732.5248,4733.0249,4732.0084,4732.5248,4730.592,162,4732.0083,4733.025,4733.5241,4733.5242,4735.2578,1199.1,4735.2579,2,4736.257,5,25,295,6,1,1.4,0.3,Time
,,670596,001,F,22,2025-04-23_19h08.44.077,Serial_Dependence_U,2023.2.3,Win32,59.88023952,,,,,,,,,,,,4736.2575,5,4736.2577,,,,4739.4077,4739.9065,4738.8911,4739.4076,4737.2745,270,4738.891,4739.9066,4740.4065,4740.4065,4742.3572,1375.9,4742.3573,2,4743.3563,5,26,296,35,1,1.6,0.7,Time
,,670596,001,F,22,2025-04-23_19h08.44.077,Serial_Dependence_U,2023.2.3,Win32,59.88023952,,,,,,,,,,,,4743.3567,5,4743.3569,,,,4745.9893,4746.4887,4745.4733,4745.9892,4744.357,281,4745.4732,4746.4888,4746.9886,4746.9887,4749.0556,1441.4,4749.0557,5,4750.055,5,27,297,39,1,1.1,0.3,Time
,,670596,001,F,22,2025-04-23_19h08.44.077,Serial_Dependence_U,2023.2.3,Win32,59.88023952,,,,,,,,,,,,4750.0553,5,4750.0554,,,,4752.4059,4752.9054,4751.8894,4752.4058,4751.0727,337,4751.8893,4752.9054,4753.4048,4753.4048,4754.9383,1027.4,4754.9385,4,4755.938,5,28,298,0,1,0.8,0.3,Time
,,670596,001,F,22,2025-04-23_19h08.44.077,Serial_Dependence_U,2023.2.3,Win32,59.88023952,,,,,,,,,,,,4755.9384,5,4755.9385,,,,4758.3708,4758.8709,4757.8546,4758.3707,4756.9393,180,4757.8546,4758.8709,4759.3708,4759.3708,4761.1706,1292.3,4761.1708,5,4762.1703,5,29,299,19,1,0.9,0.3,Time
,,670596,001,F,22,2025-04-23_19h08.44.077,Serial_Dependence_U,2023.2.3,Win32,59.88023952,,,,,,,,,,,,4762.1708,5,4762.171,,,,4765.0209,4765.5197,4764.5041,4765.0208,4763.1874,255,4764.504,4765.5197,4766.0206,4766.0207,4767.8532,1343.1,4767.8534,3,4768.8525,5,30,300,50,1,1.3,0.7,Time
,,670596,001,F,22,2025-04-23_19h08.44.077,Serial_Dependence_U,2023.2.3,Win32,59.88023952,,,,,,,,,,,,4768.8527,5,4768.8529,,,,4771.4034,4771.9026,4770.8865,4771.4032,4769.8703,166,4770.8864,4771.9026,4772.4027,4772.4027,4774.2363,1311.6,4774.2365,5,4775.2353,5,31,301,29,1,1,0.7,Time
,,670596,001,F,22,2025-04-23_19h08.44.077,Serial_Dependence_U,2023.2.3,Win32,59.88023952,,,,,,,,,,,,4775.2357,5,4775.2358,,,,4777.9856,4778.4849,4777.4689,4777.9855,4776.2529,110,4777.4688,4778.4849,4778.9848,4778.9848,4780.702,1149.1,4780.7021,3,4781.7013,5,32,302,13,1,1.2,0.7,Time
,,670596,001,F,22,2025-04-23_19h08.44.077,Serial_Dependence_U,2023.2.3,Win32,59.88023952,,,,,,,,,,,,4781.7019,5,4781.702,,,,4784.5513,4785.0515,4784.0346,4784.5513,4782.7183,199,4784.0345,4785.0515,4785.551,4785.551,4787.3175,1289.7,4787.3177,3,4788.317,5,33,303,41,1,1.3,0.3,Time
,,670596,001,F,22,2025-04-23_19h08.44.077,Serial_Dependence_U,2023.2.3,Win32,59.88023952,,,,,,,,,,,,4788.3174,5,4788.3175,,,,4791.4671,4791.966,4790.9502,4791.467,4789.334,29,4790.95,4791.9661,4792.4665,4792.4665,4794.4,1435.3,4794.4001,2,4795.3992,5,34,304,8,1,1.6,0.3,Time
,,670596,001,F,22,2025-04-23_19h08.44.077,Serial_Dependence_U,2023.2.3,Win32,59.88023952,,,,,,,,,,,,4795.3996,5,4795.3997,,,,4798.3332,4798.8319,4797.8168,4798.3331,4796.4002,17,4797.8166,4798.8319,4799.3317,4799.3318,4799.8654,216.8,4799.8655,1,4800.8649,5,35,305,42,1,1.4,0.3,Time
,,670596,001,F,22,2025-04-23_19h08.44.077,Serial_Dependence_U,2023.2.3,Win32,59.88023952,,,,,,,,,,,,4800.8652,5,4800.8653,,,,4803.3986,4803.8978,4802.8825,4803.3986,4801.866,92,4802.8824,4803.8978,4804.3979,4804.398,4806.448,1584.6,4806.4481,5,4807.4476,5,36,306,2,1,1,0.3,Time
,,670596,001,F,22,2025-04-23_19h08.44.077,Serial_Dependence_U,2023.2.3,Win32,59.88023952,,,,,,,,,,,,4807.4481,5,4807.4483,,,,4810.2658,4810.7638,4809.7648,4810.2658,4808.4489,293,4809.7647,4810.7638,4811.2639,4811.264,4813.3978,1585.2,4813.3979,4,4814.3969,5,37,307,23,1,1.3,0.3,Time
,,670596,001,F,22,2025-04-23_19h08.44.077,Serial_Dependence_U,2023.2.3,Win32,59.88023952,,,,,,,,,,,,4814.3972,5,4814.3976,,,,4817.1299,4817.6295,4816.6138,4817.1298,4815.3973,33,4816.6137,4817.6295,4818.1296,4818.1296,4820.0466,1360.5,4820.0469,4,4821.0461,5,38,308,22,1,1.2,0.3,Time
,,670596,001,F,22,2025-04-23_19h08.44.077,Serial_Dependence_U,2023.2.3,Win32,59.88023952,,,,,,,,,,,,4821.0467,5,4821.0468,,,,4824.1799,4824.6789,4823.6632,4824.1798,4822.0464,220,4823.6631,4824.679,4825.1784,4825.1785,4827.0624,1408.8,4827.0627,2,4828.0617,5,39,309,53,1,1.6,0.7,Time
,,670596,001,F,22,2025-04-23_19h08.44.077,Serial_Dependence_U,2023.2.3,Win32,59.88023952,,,,,,,,,,,,4828.0622,5,4828.0623,,,,4830.7125,4831.2109,4830.1956,4830.7124,4829.0792,225,4830.1955,4831.2109,4831.7113,4831.7113,4833.3447,1156.5,4833.3449,4,4834.3439,5,40,310,12,1,1.1,0.7,Time
,,670596,001,F,22,2025-04-23_19h08.44.077,Serial_Dependence_U,2023.2.3,Win32,59.88023952,,,,,,,,,,,,4834.3441,5,4834.3442,,,,4837.4938,4837.9939,4836.9771,4837.4937,4835.3616,337,4836.9771,4837.994,4838.4936,4838.4936,4840.3945,1512.9,4840.3947,2,4841.3934,5,41,311,44,1,1.6,0.3,Time
,,670596,001,F,22,2025-04-23_19h08.44.077,Serial_Dependence_U,2023.2.3,Win32,59.88023952,,,,,,,,,,,,4841.394,5,4841.3941,,,,4844.1107,4844.6092,4843.61,4844.1105,4842.394,32,4843.6098,4844.6092,4845.1094,4845.1095,4847.1261,1435.3,4847.1263,4,4848.1259,5,42,312,4,1,1.2,0.3,Time
,,670596,001,F,22,2025-04-23_19h08.44.077,Serial_Dependence_U,2023.2.3,Win32,59.88023952,,,,,,,,,,,,4848.1265,5,4848.1267,,,,4850.5594,4851.0587,4850.0422,4850.5593,4849.126,106,4850.0421,4851.0587,4851.5587,4851.5588,4853.2423,1182.2,4853.2424,5,4854.2417,5,43,313,37,1,0.9,0.3,Time
,,670596,001,F,22,2025-04-23_19h08.44.077,Serial_Dependence_U,2023.2.3,Win32,59.88023952,,,,,,,,,,,,4854.2421,5,4854.2423,,,,4857.1754,4857.674,4856.6589,4857.1753,4855.2424,236,4856.6589,4857.6741,4858.1743,4858.1743,4860.024,1338.4,4860.0241,3,4861.024,5,44,314,33,1,1.4,0.7,Time
,,670596,001,F,22,2025-04-23_19h08.44.077,Serial_Dependence_U,2023.2.3,Win32,59.88023952,,,,,,,,,,,,4861.0245,5,4861.0247,,,,4863.3575,4863.8568,4862.8413,4863.3575,4862.0406,86,4862.8412,4863.8568,4864.357,4864.3571,4865.8067,999.6,4865.8068,4,4866.8064,5,45,315,45,1,0.8,0.7,Time
,,670596,001,F,22,2025-04-23_19h08.44.077,Serial_Dependence_U,2023.2.3,Win32,59.88023952,,,,,,,,,,,,4866.8067,5,4866.807,,,,4869.3573,4869.8561,4868.8401,4869.3571,4867.824,237,4868.8401,4869.8561,4870.3562,4870.3563,4872.1891,1354.2,4872.1893,5,4873.189,5,46,316,11,1,1,0.7,Time
,,670596,001,F,22,2025-04-23_19h08.44.077,Serial_Dependence_U,2023.2.3,Win32,59.88023952,,,,,,,,,,,,4873.1894,5,4873.1895,,,,4875.6223,4876.1223,4875.1062,4875.6221,4874.1897,191,4875.1062,4876.1224,4876.6221,4876.6222,4878.4388,1224.4,4878.439,5,4879.4382,5,47,317,1,1,0.9,0.3,Time
,,670596,001,F,22,2025-04-23_19h08.44.077,Serial_Dependence_U,2023.2.3,Win32,59.88023952,,,,,,,,,,,,4879.4388,5,4879.4389,,,,4882.4889,4882.9877,4881.9718,4882.4888,4880.4551,182,4881.9718,4882.9877,4883.4877,4883.4877,4885.3208,1290.1,4885.3209,2,4886.3204,5,48,318,25,1,1.5,0.3,Time
,,670596,001,F,22,2025-04-23_19h08.44.077,Serial_Dependence_U,2023.2.3,Win32,59.88023952,,,,,,,,,,,,4886.3208,5,4886.3209,,,,4889.271,4889.77,4888.7542,4889.271,4887.3375,227,4888.754,4889.77,4890.2702,4890.2702,4892.1038,1375.4,4892.104,3,4893.1031,5,49,319,24,1,1.4,0.3,Time
,,670596,001,F,22,2025-04-23_19h08.44.077,Serial_Dependence_U,2023.2.3,Win32,59.88023952,,,,,,,,,,,,4893.1036,5,4893.1039,,,,4895.4369,4895.9361,4894.9202,4895.4367,4894.1196,118,4894.92,4895.9361,4896.4362,4896.4363,4897.8033,839.5,4897.8036,3,4898.8027,5,50,320,18,1,0.8,0.3,Time
,,670596,001,F,22,2025-04-23_19h08.44.077,Serial_Dependence_U,2023.2.3,Win32,59.88023952,,,,,,,,,,,,4898.8032,5,4898.8034,,,,4901.3529,4901.8516,4900.836,4901.3528,4899.8194,132,4900.8359,4901.8517,4902.3519,4902.352,4904.1184,1239.6,4904.1187,4,4905.1181,5,51,321,20,1,1,0.3,Time
,,670596,001,F,22,2025-04-23_19h08.44.077,Serial_Dependence_U,2023.2.3,Win32,59.88023952,,,,,,,,,,,,4905.1186,5,4905.1187,,,,4907.5685,4908.0677,4907.0517,4907.5684,4906.1358,308,4907.0515,4908.0678,4908.5676,4908.5676,4910.1012,1025.4,4910.1015,4,4911.1008,5,52,322,10,1,0.9,0.7,Time
,,670596,001,F,22,2025-04-23_19h08.44.077,Serial_Dependence_U,2023.2.3,Win32,59.88023952,,,,,,,,,,,,4911.1011,5,4911.1013,,,,4913.4345,4913.9336,4912.9181,4913.4344,4912.1015,123,4912.918,4913.9337,4914.4336,4914.4337,4915.9166,958.5,4915.9168,4,4916.9167,5,53,323,27,1,0.8,0.7,Time
,,670596,001,F,22,2025-04-23_19h08.44.077,Serial_Dependence_U,2023.2.3,Win32,59.88023952,,,,,,,,,,,,4916.9173,6,4940.3192,s,23.377,,4943.2641,4943.7628,4942.7471,4943.264,4941.331,60,4942.747,4943.7628,4944.2627,4944.2627,4946.0465,1375.8,4946.0468,3,4947.0462,6,0,324,33,1,1.4,0.7,Time
,,670596,001,F,22,2025-04-23_19h08.44.077,Serial_Dependence_U,2023.2.3,Win32,59.88023952,,,,,,,,,,,,4947.0467,6,4947.0479,,,,4950.1799,4950.6792,4949.6791,4950.1798,4948.0636,263,4949.679,4950.6792,4951.1789,4951.1789,4953.2626,1380.2,4953.2628,2,4954.2619,6,1,325,44,1,1.6,0.3,Time
,,670596,001,F,22,2025-04-23_19h08.44.077,Serial_Dependence_U,2023.2.3,Win32,59.88023952,,,,,,,,,,,,4954.2625,6,4954.2627,,,,4957.0955,4957.5943,4956.5789,4957.0953,4955.2623,300,4956.5788,4957.5943,4958.0948,4958.095,4960.0282,1335,4960.0284,3,4961.0275,6,2,326,32,1,1.3,0.7,Time
,,670596,001,F,22,2025-04-23_19h08.44.077,Serial_Dependence_U,2023.2.3,Win32,59.88023952,,,,,,,,,,,,4961.028,6,4961.028,,,,4963.8772,4964.377,4963.3615,4963.8771,4962.0447,84,4963.3614,4964.377,4964.8767,4964.8767,4966.4768,1121.7,4966.4769,2,4967.4763,6,3,327,41,1,1.3,0.3,Time
,,670596,001,F,22,2025-04-23_19h08.44.077,Serial_Dependence_U,2023.2.3,Win32,59.88023952,,,,,,,,,,,,4967.4767,6,4967.4768,,,,4970.027,4970.5263,4969.5103,4970.0269,4968.4935,49,4969.5102,4970.5263,4971.0261,4971.0261,4972.9762,1248.6,4972.9764,4,4973.9758,6,4,328,11,1,1,0.7,Time
,,670596,001,F,22,2025-04-23_19h08.44.077,Serial_Dependence_U,2023.2.3,Win32,59.88023952,,,,,,,,,,,,4973.9765,6,4973.9767,,,,4976.7096,4977.2083,4976.2087,4976.7095,4974.9935,22,4976.2087,4977.2083,4977.7085,4977.7086,4979.6091,1311.7,4979.6093,4,4980.608,6,5,329,4,1,1.2,0.3,Time
,,670596,001,F,22,2025-04-23_19h08.44.077,Serial_Dependence_U,2023.2.3,Win32,59.88023952,,,,,,,,,,,,4980.6082,6,4980.6084,,,,4983.558,4984.0579,4983.0418,4983.5579,4981.6259,33,4983.0417,4984.0579,4984.5575,4984.5575,4986.4572,1434.6,4986.4574,3,4987.4571,6,6,330,15,1,1.4,0.7,Time
,,670596,001,F,22,2025-04-23_19h08.44.077,Serial_Dependence_U,2023.2.3,Win32,59.88023952,,,,,,,,,,,,4987.4576,6,4987.4578,,,,4990.0917,4990.5905,4989.5744,4990.0915,4988.4582,151,4989.5743,4990.5905,4991.09,4991.09,4992.8904,1191.4,4992.8907,4,4993.8898,6,7,331,3,1,1.1,0.3,Time
,,670596,001,F,22,2025-04-23_19h08.44.077,Serial_Dependence_U,2023.2.3,Win32,59.88023952,,,,,,,,,,,,4993.8902,6,4993.8902,,,,4996.6239,4997.1227,4996.1231,4996.6238,4994.907,233,4996.123,4997.1227,4997.6229,4997.6229,4999.5392,995.8,4999.5394,2,5000.5391,6,8,332,40,1,1.2,0.3,Time
,,670596,001,F,22,2025-04-23_19h08.44.077,Serial_Dependence_U,2023.2.3,Win32,59.88023952,,,,,,,,,,,,5000.5399,6,5000.5401,,,,5003.6727,5004.1716,5003.1562,5003.6725,5001.5556,114,5003.1561,5004.1716,5004.6715,5004.6716,5006.9222,1737.3,5006.9224,4,5007.9217,6,9,333,8,1,1.6,0.3,Time
,,670596,001,F,22,2025-04-23_19h08.44.077,Serial_Dependence_U,2023.2.3,Win32,59.88023952,,,,,,,,,,,,5007.9222,6,5007.9223,,,,5011.0717,5011.5709,5010.555,5011.0716,5008.9393,347,5010.5549,5011.5709,5012.0707,5012.0707,5014.005,1424,5014.0053,2,5015.0044,6,10,334,53,1,1.6,0.7,Time
,,670596,001,F,22,2025-04-23_19h08.44.077,Serial_Dependence_U,2023.2.3,Win32,59.88023952,,,,,,,,,,,,5015.0052,6,5015.0053,,,,5017.5367,5018.0368,5017.0207,5017.5366,5016.0047,207,5017.0206,5018.0369,5018.5364,5018.5364,5020.2695,1254.4,5020.2696,4,5021.2693,6,11,335,29,1,1,0.7,Time
,,670596,001,F,22,2025-04-23_19h08.44.077,Serial_Dependence_U,2023.2.3,Win32,59.88023952,,,,,,,,,,,,5021.2698,6,5021.2699,,,,5023.8203,5024.3188,5023.3037,5023.8202,5022.2866,248,5023.3035,5024.3188,5024.8187,5024.8187,5026.6196,1290.8,5026.6198,4,5027.6187,6,12,336,2,1,1,0.3,Time
,,670596,001,F,22,2025-04-23_19h08.44.077,Serial_Dependence_U,2023.2.3,Win32,59.88023952,,,,,,,,,,,,5027.6193,6,5027.6195,,,,5030.5693,5031.0681,5030.0521,5030.5692,5028.6363,61,5030.052,5031.0681,5031.568,5031.568,5033.368,1302.8,5033.368,2,5034.3679,6,13,337,6,1,1.4,0.3,Time
,,670596,001,F,22,2025-04-23_19h08.44.077,Serial_Dependence_U,2023.2.3,Win32,59.88023952,,,,,,,,,,,,5034.3682,6,5034.3682,,,,5037.218,5037.7177,5036.7015,5037.2178,5035.3849,193,5036.7014,5037.7178,5038.2172,5038.2173,5040.1838,1426.6,5040.1839,4,5041.1834,6,14,338,23,1,1.3,0.3,Time
,,670596,001,F,22,2025-04-23_19h08.44.077,Serial_Dependence_U,2023.2.3,Win32,59.88023952,,,,,,,,,,,,5041.1839,6,5041.1841,,,,5043.9175,5044.4163,5043.4167,5043.9175,5042.2001,332,5043.4167,5044.4164,5044.9165,5044.9165,5046.8831,1240.5,5046.8833,3,5047.8829,6,15,339,22,1,1.2,0.3,Time
,,670596,001,F,22,2025-04-23_19h08.44.077,Serial_Dependence_U,2023.2.3,Win32,59.88023952,,,,,,,,,,,,5047.8833,6,5047.8834,,,,5050.6162,5051.1155,5050.1003,5050.616,5048.8834,301,5050.1003,5051.1155,5051.6156,5051.6156,5053.5164,1259.5,5053.5167,3,5054.5153,6,16,340,13,1,1.2,0.7,Time
,,670596,001,F,22,2025-04-23_19h08.44.077,Serial_Dependence_U,2023.2.3,Win32,59.88023952,,,,,,,,,,,,5054.5159,6,5054.516,,,,5057.565,5058.0648,5057.0488,5057.565,5055.5322,268,5057.0486,5058.0648,5058.5647,5058.5648,5060.381,1317.1,5060.3811,2,5061.3809,6,17,341,43,1,1.5,0.3,Time
,,670596,001,F,22,2025-04-23_19h08.44.077,Serial_Dependence_U,2023.2.3,Win32,59.88023952,,,,,,,,,,,,5061.3816,6,5061.3818,,,,5064.4311,5064.9304,5063.9139,5064.431,5062.3981,15,5063.9139,5064.9305,5065.4299,5065.43,5067.3632,1337.2,5067.3634,2,5068.3635,6,18,342,34,1,1.5,0.7,Time
,,670596,001,F,22,2025-04-23_19h08.44.077,Serial_Dependence_U,2023.2.3,Win32,59.88023952,,,,,,,,,,,,5068.364,6,5068.3642,,,,5070.7138,5071.2127,5070.1975,5070.7137,5069.3803,251,5070.1974,5071.2128,5071.7125,5071.7125,5073.3964,1118.1,5073.3965,5,5074.3957,6,19,343,18,1,0.8,0.3,Time
,,670596,001,F,22,2025-04-23_19h08.44.077,Serial_Dependence_U,2023.2.3,Win32,59.88023952,,,,,,,,,,,,5074.3961,6,5074.3963,,,,5077.5292,5078.0285,5077.0125,5077.5292,5075.3963,169,5077.0124,5078.0286,5078.5285,5078.5285,5080.4956,1384.4,5080.4958,2,5081.4948,6,20,344,17,1,1.6,0.7,Time
,,670596,001,F,22,2025-04-23_19h08.44.077,Serial_Dependence_U,2023.2.3,Win32,59.88023952,,,,,,,,,,,,5081.4952,6,5081.4953,,,,5083.8453,5084.3444,5083.3285,5083.8452,5082.5122,71,5083.3285,5084.3445,5084.8446,5084.8447,5086.6125,1167.7,5086.6126,5,5087.6109,6,21,345,0,1,0.8,0.3,Time
,,670596,001,F,22,2025-04-23_19h08.44.077,Serial_Dependence_U,2023.2.3,Win32,59.88023952,,,,,,,,,,,,5087.6114,6,5087.6115,,,,5090.6613,5091.1603,5090.1443,5090.6612,5088.6282,167,5090.1442,5091.1603,5091.6603,5091.6604,5093.9432,1736.6,5093.9434,4,5094.9428,6,22,346,7,1,1.5,0.3,Time
,,670596,001,F,22,2025-04-23_19h08.44.077,Serial_Dependence_U,2023.2.3,Win32,59.88023952,,,,,,,,,,,,5094.9432,6,5094.9434,,,,5097.7761,5098.2759,5097.2606,5097.7759,5095.9436,242,5097.2606,5098.2759,5098.7762,5098.7763,5100.8761,1488.3,5100.8764,4,5101.8755,6,23,347,5,1,1.3,0.3,Time
,,670596,001,F,22,2025-04-23_19h08.44.077,Serial_Dependence_U,2023.2.3,Win32,59.88023952,,,,,,,,,,,,5101.8761,6,5101.8762,,,,5104.3263,5104.8252,5103.8094,5104.3261,5102.8925,96,5103.8093,5104.8252,5105.3251,5105.3252,5107.0585,1051.7,5107.0588,4,5108.058,6,24,348,19,1,0.9,0.3,Time
,,670596,001,F,22,2025-04-23_19h08.44.077,Serial_Dependence_U,2023.2.3,Win32,59.88023952,,,,,,,,,,,,5108.0585,6,5108.0587,,,,5110.3917,5110.891,5109.8753,5110.3916,5109.0747,47,5109.8752,5110.891,5111.3911,5111.3912,5112.9911,928.7,5112.9913,4,5113.9906,6,25,349,36,1,0.8,0.3,Time
,,670596,001,F,22,2025-04-23_19h08.44.077,Serial_Dependence_U,2023.2.3,Win32,59.88023952,,,,,,,,,,,,5113.9911,6,5113.9913,,,,5116.9246,5117.4232,5116.4074,5116.9244,5114.9912,329,5116.4073,5117.4232,5117.9235,5117.9236,5120.0411,1560.4,5120.0414,4,5121.0397,6,26,350,42,1,1.4,0.3,Time
,,670596,001,F,22,2025-04-23_19h08.44.077,Serial_Dependence_U,2023.2.3,Win32,59.88023952,,,,,,,,,,,,5121.0403,6,5121.0404,,,,5123.7727,5124.2723,5123.2566,5123.7727,5122.0402,254,5123.2565,5124.2723,5124.7727,5124.7727,5126.4564,1301,5126.4566,4,5127.4558,6,27,351,49,1,1.2,0.7,Time
