Scale_setup.started,Scale_setup.stopped,participant,session,sex,age,date,expName,psychopyVersion,OS,frameRate,screen_scale_keys.started,screen_scale_keys.stopped,X Scale,Y Scale,rectangel_keys.started,rectangel_keys.stopped,Intro.started,Intro.stopped,key_resp_2.keys,key_resp_2.rt,key_resp_2.duration,block.started,Block_id,block.stopped,Block_resp_2.keys,Block_resp_2.rt,Block_resp_2.duration,ITI.started,ITI.stopped,Mask_2.started,Mask_2.stopped,M2.started,direction,M2.stopped,Cue.started,Cue.stopped,Response.started,Response.stopped,keyDuration,Feedback_Time.started,FeedbackID_T,Feedback_Time.stopped,trials.thisRepN,trials.thisTrialN,trials.thisN,trials.thisIndex,trials.ran,TimeDur,Coherence1,TrialType
0.0002,0.0004,Chunyu,1,M,23,2025-04-23_22h37.54.705,Serial_Dependence_U,2023.2.3,Win32,238.0952381,,,,,,,,,,,,,,,,,,,,,,,,,,,,,,,,,,,,,,,,
,,Chunyu,1,M,23,2025-04-23_22h37.54.705,Serial_Dependence_U,2023.2.3,Win32,238.0952381,0.0016,29.2437,0.05,0.0505,29.2439,29.8079,29.8081,31.0444,space,1.2153,,,,,,,,,,,,,,,,,,,,,,,,,,,,,,
,,Chunyu,1,M,23,2025-04-23_22h37.54.705,Serial_Dependence_U,2023.2.3,Win32,238.0952381,,,,,,,,,,,,31.052,0,31.4696,s,0.4067,,34.3877,34.8881,33.8812,34.3874,32.4789,86,33.8811,34.8882,35.3852,35.3855,36.774,1107.1,36.7746,2,37.7738,0,0,0,51,1,1.4,0.7,Time
,,Chunyu,1,M,23,2025-04-23_22h37.54.705,Serial_Dependence_U,2023.2.3,Win32,238.0952381,,,,,,,,,,,,37.7746,0,37.7766,,,,40.8836,41.3808,40.3801,40.8835,38.7775,135,40.38,41.3809,41.8752,41.8754,43.4235,1039.5,43.4239,1,44.4218,0,1,1,8,1,1.6,0.3,Time
,,Chunyu,1,M,23,2025-04-23_22h37.54.705,Serial_Dependence_U,2023.2.3,Win32,238.0952381,,,,,,,,,,,,44.4227,0,44.4228,,,,47.0569,47.5611,46.535,47.0567,45.4311,288,46.5349,47.5612,48.0561,48.0561,49.4842,1150.5,49.4844,3,50.4791,0,2,2,3,1,1.1,0.3,Time
,,Chunyu,1,M,23,2025-04-23_22h37.54.705,Serial_Dependence_U,2023.2.3,Win32,238.0952381,,,,,,,,,,,,50.4794,0,50.4796,,,,53.1038,53.599,52.598,53.1034,51.4855,46,52.5979,53.5991,54.0903,54.0905,55.4958,1119,55.4963,3,56.4954,0,3,3,48,1,1.1,0.7,Time
,,Chunyu,1,M,23,2025-04-23_22h37.54.705,Serial_Dependence_U,2023.2.3,Win32,238.0952381,,,,,,,,,,,,56.4961,0,56.4962,,,,58.8124,59.3087,58.3003,58.812,57.4994,255,58.3001,59.3088,59.8066,59.8066,61.1405,1126.9,61.1408,5,62.1405,0,4,4,45,1,0.8,0.7,Time
,,Chunyu,1,M,23,2025-04-23_22h37.54.705,Serial_Dependence_U,2023.2.3,Win32,238.0952381,,,,,,,,,,,,62.1415,0,62.1417,,,,64.8686,65.3596,64.3622,64.8683,63.1545,236,64.3619,65.3597,65.8597,65.86,67.024,945.5,67.0244,2,68.0239,0,5,5,31,1,1.2,0.7,Time
,,Chunyu,1,M,23,2025-04-23_22h37.54.705,Serial_Dependence_U,2023.2.3,Win32,238.0952381,,,,,,,,,,,,68.0245,0,68.0247,,,,70.9483,71.4453,70.4347,70.9482,69.0262,51,70.4345,71.4453,71.942,71.9421,73.361,1169.3,73.361,2,74.3598,0,6,6,33,1,1.4,0.7,Time
,,Chunyu,1,M,23,2025-04-23_22h37.54.705,Serial_Dependence_U,2023.2.3,Win32,238.0952381,,,,,,,,,,,,74.3607,0,74.3611,,,,76.7773,77.2718,76.2726,76.777,75.3692,345,76.2722,77.2719,77.7762,77.7763,79.0655,1081,79.0658,4,80.0608,0,7,7,37,1,0.9,0.3,Time
,,Chunyu,1,M,23,2025-04-23_22h37.54.705,Serial_Dependence_U,2023.2.3,Win32,238.0952381,,,,,,,,,,,,80.0614,0,80.0615,,,,82.8764,83.3701,82.3722,82.8763,81.0706,177,82.3718,83.3702,83.8696,83.8697,85.2197,1140.9,85.2199,2,86.211,0,8,8,14,1,1.3,0.7,Time
,,Chunyu,1,M,23,2025-04-23_22h37.54.705,Serial_Dependence_U,2023.2.3,Win32,238.0952381,,,,,,,,,,,,86.212,0,86.2122,,,,88.9352,89.4349,88.4296,88.9351,87.2225,122,88.4293,89.4349,89.93,89.9301,91.1611,1076,91.1614,2,92.1661,0,9,9,4,1,1.2,0.3,Time
,,Chunyu,1,M,23,2025-04-23_22h37.54.705,Serial_Dependence_U,2023.2.3,Win32,238.0952381,,,,,,,,,,,,92.1668,0,92.1669,,,,94.5813,95.084,94.0773,94.5812,93.1735,91,94.0771,95.0841,95.5791,95.5791,96.915,1084,96.9151,4,97.9147,0,10,10,10,1,0.9,0.7,Time
,,Chunyu,1,M,23,2025-04-23_22h37.54.705,Serial_Dependence_U,2023.2.3,Win32,238.0952381,,,,,,,,,,,,97.9157,0,97.9161,,,,100.8292,101.3351,100.3269,100.8288,98.9188,233,100.3266,101.3352,101.832,101.832,103.037,1019.2,103.0372,2,104.0301,0,11,11,42,1,1.4,0.3,Time
,,Chunyu,1,M,23,2025-04-23_22h37.54.705,Serial_Dependence_U,2023.2.3,Win32,238.0952381,,,,,,,,,,,,104.0311,0,104.0314,,,,106.9447,107.445,106.4437,106.9445,105.0401,331,106.4432,107.445,107.9406,107.9426,109.3348,1261.9,109.3352,2,110.3342,0,12,12,15,1,1.4,0.7,Time
,,Chunyu,1,M,23,2025-04-23_22h37.54.705,Serial_Dependence_U,2023.2.3,Win32,238.0952381,,,,,,,,,,,,110.3349,0,110.3351,,,,112.9552,113.4469,112.4486,112.9547,111.3318,273,112.4373,113.4471,113.9435,113.9435,115.2109,1030,115.211,2,116.212,0,13,13,39,1,1.1,0.3,Time
,,Chunyu,1,M,23,2025-04-23_22h37.54.705,Serial_Dependence_U,2023.2.3,Win32,238.0952381,,,,,,,,,,,,116.2122,0,116.2123,,,,119.3345,119.8296,118.8183,119.3343,117.2164,341,118.8179,119.8297,120.3206,120.3207,121.8693,1285.2,121.8698,2,122.8714,0,14,14,35,1,1.6,0.7,Time
,,Chunyu,1,M,23,2025-04-23_22h37.54.705,Serial_Dependence_U,2023.2.3,Win32,238.0952381,,,,,,,,,,,,122.8719,0,122.872,,,,125.4751,125.9815,124.9744,125.4749,123.8718,95,124.9741,125.9816,126.4827,126.4829,128.0962,1388.3,128.0964,4,129.0932,0,15,15,12,1,1.1,0.7,Time
,,Chunyu,1,M,23,2025-04-23_22h37.54.705,Serial_Dependence_U,2023.2.3,Win32,238.0952381,,,,,,,,,,,,129.0935,0,129.0936,,,,132.1189,132.6203,131.6146,132.1188,130.0991,243,131.6144,132.6203,133.1192,133.1193,134.6034,1227.3,134.6038,2,135.595,0,16,16,16,1,1.5,0.7,Time
,,Chunyu,1,M,23,2025-04-23_22h37.54.705,Serial_Dependence_U,2023.2.3,Win32,238.0952381,,,,,,,,,,,,135.5955,0,135.5956,,,,138.1319,138.6265,137.627,138.1316,136.6202,85,137.6269,138.6266,139.1276,139.1276,140.4943,1167.8,140.4945,4,141.4894,0,17,17,38,1,1,0.3,Time
,,Chunyu,1,M,23,2025-04-23_22h37.54.705,Serial_Dependence_U,2023.2.3,Win32,238.0952381,,,,,,,,,,,,141.4896,0,141.4896,,,,144.3062,144.8013,143.8022,144.306,142.4928,300,143.802,144.8014,145.2979,145.2979,146.7524,1226.1,146.7525,2,147.7543,0,18,18,23,1,1.3,0.3,Time
,,Chunyu,1,M,23,2025-04-23_22h37.54.705,Serial_Dependence_U,2023.2.3,Win32,238.0952381,,,,,,,,,,,,147.7552,0,147.7556,,,,150.8741,151.3653,150.3679,150.8736,148.7541,191,150.3549,151.3653,151.8617,151.8619,153.544,1502.3,153.545,2,154.5366,0,19,19,53,1,1.6,0.7,Time
,,Chunyu,1,M,23,2025-04-23_22h37.54.705,Serial_Dependence_U,2023.2.3,Win32,238.0952381,,,,,,,,,,,,154.5368,0,154.5368,,,,157.6534,158.155,157.1478,157.6532,155.5387,356,157.1477,158.155,158.6495,158.6496,160.1611,1264.9,160.1612,2,161.1614,0,20,20,26,1,1.6,0.3,Time
,,Chunyu,1,M,23,2025-04-23_22h37.54.705,Serial_Dependence_U,2023.2.3,Win32,238.0952381,,,,,,,,,,,,161.1624,0,161.1628,,,,164.2709,164.762,163.7646,164.2707,162.1632,124,163.764,164.7621,165.2568,165.2571,167.1356,1645.4,167.1358,3,168.1316,0,21,21,44,1,1.6,0.3,Time
,,Chunyu,1,M,23,2025-04-23_22h37.54.705,Serial_Dependence_U,2023.2.3,Win32,238.0952381,,,,,,,,,,,,168.1326,0,168.1328,,,,170.47,170.9769,169.9566,170.47,169.1362,63,169.9441,170.977,171.4711,171.4711,172.5031,841,172.5037,4,173.5061,0,22,22,9,1,0.8,0.7,Time
,,Chunyu,1,M,23,2025-04-23_22h37.54.705,Serial_Dependence_U,2023.2.3,Win32,238.0952381,,,,,,,,,,,,173.507,0,173.5073,,,,176.4293,176.9359,175.9158,176.4291,174.5117,97,175.9152,176.9361,177.4337,177.4337,179.1797,1524.5,179.1799,4,180.1846,0,23,23,24,1,1.4,0.3,Time
,,Chunyu,1,M,23,2025-04-23_22h37.54.705,Serial_Dependence_U,2023.2.3,Win32,238.0952381,,,,,,,,,,,,180.1856,0,180.1859,,,,182.9029,183.3948,182.3983,182.9024,181.193,292,182.3981,183.395,183.887,183.8871,185.3513,1172,185.3514,3,186.3548,0,24,24,40,1,1.2,0.3,Time
,,Chunyu,1,M,23,2025-04-23_22h37.54.705,Serial_Dependence_U,2023.2.3,Win32,238.0952381,,,,,,,,,,,,186.3555,0,186.3558,,,,189.1789,189.6863,188.6713,189.1788,187.363,159,188.6706,189.6864,190.191,190.191,191.3754,1042.3,191.3757,2,192.3785,0,25,25,41,1,1.3,0.3,Time
,,Chunyu,1,M,23,2025-04-23_22h37.54.705,Serial_Dependence_U,2023.2.3,Win32,238.0952381,,,,,,,,,,,,192.3793,0,192.3795,,,,195.3162,195.8075,194.8113,195.3161,193.3918,343,194.8107,195.8076,196.3108,196.3109,197.9387,1314.2,197.9388,2,198.9359,0,26,26,6,1,1.4,0.3,Time
,,Chunyu,1,M,23,2025-04-23_22h37.54.705,Serial_Dependence_U,2023.2.3,Win32,238.0952381,,,,,,,,,,,,198.9368,0,198.9369,,,,201.9522,202.4483,201.4464,201.9518,199.9412,325,201.4461,202.4485,202.9437,202.9437,204.4468,1295.2,204.4474,2,205.4435,0,27,27,34,1,1.5,0.7,Time
,,Chunyu,1,M,23,2025-04-23_22h37.54.705,Serial_Dependence_U,2023.2.3,Win32,238.0952381,,,,,,,,,,,,205.4444,0,205.4445,,,,208.4687,208.9602,207.961,208.4682,206.454,59,207.9608,208.9603,209.4573,209.4575,211.1659,1420,211.166,2,212.1639,0,28,28,43,1,1.5,0.3,Time
,,Chunyu,1,M,23,2025-04-23_22h37.54.705,Serial_Dependence_U,2023.2.3,Win32,238.0952381,,,,,,,,,,,,212.1647,0,212.1649,,,,214.4769,214.9721,213.9689,214.4765,213.165,162,213.9686,214.9721,215.4745,215.4745,216.7502,994.7,216.7507,4,217.7551,0,29,29,27,1,0.8,0.7,Time
,,Chunyu,1,M,23,2025-04-23_22h37.54.705,Serial_Dependence_U,2023.2.3,Win32,238.0952381,,,,,,,,,,,,217.7553,0,217.7554,,,,220.286,220.7809,219.7768,220.2859,218.768,164,219.7767,220.7809,221.274,221.2741,222.6297,1101.5,222.6301,4,223.6227,0,30,30,47,1,1,0.7,Time
,,Chunyu,1,M,23,2025-04-23_22h37.54.705,Serial_Dependence_U,2023.2.3,Win32,238.0952381,,,,,,,,,,,,223.6235,0,223.6238,,,,226.1543,226.6502,225.6465,226.1541,224.6366,310,225.6463,226.6503,227.148,227.1481,228.5164,1142.9,228.5168,4,229.5159,0,31,31,11,1,1,0.7,Time
,,Chunyu,1,M,23,2025-04-23_22h37.54.705,Serial_Dependence_U,2023.2.3,Win32,238.0952381,,,,,,,,,,,,229.5165,0,229.5167,,,,231.8295,232.3236,231.3248,231.8291,230.5128,308,231.3244,232.3236,232.8238,232.8239,234.0181,897,234.0186,4,235.0217,0,32,32,0,1,0.8,0.3,Time
,,Chunyu,1,M,23,2025-04-23_22h37.54.705,Serial_Dependence_U,2023.2.3,Win32,238.0952381,,,,,,,,,,,,235.0221,0,235.0221,,,,237.8321,238.3309,237.3286,237.8318,236.0269,236,237.3283,238.331,238.8259,238.826,240.3921,1264.5,240.3924,3,241.3913,0,33,33,32,1,1.3,0.7,Time
,,Chunyu,1,M,23,2025-04-23_22h37.54.705,Serial_Dependence_U,2023.2.3,Win32,238.0952381,,,,,,,,,,,,241.3915,0,241.3915,,,,243.7025,244.2015,243.2007,243.7021,242.396,250,243.2002,244.2016,244.6934,244.6934,246.0405,1045.4,246.041,5,247.0415,0,34,34,36,1,0.8,0.3,Time
,,Chunyu,1,M,23,2025-04-23_22h37.54.705,Serial_Dependence_U,2023.2.3,Win32,238.0952381,,,,,,,,,,,,247.0427,0,247.0431,,,,249.3685,249.8647,248.8579,249.3681,248.0434,210,248.8577,249.8647,250.3673,250.3675,251.8738,1243.9,251.874,5,252.8726,0,35,35,18,1,0.8,0.3,Time
,,Chunyu,1,M,23,2025-04-23_22h37.54.705,Serial_Dependence_U,2023.2.3,Win32,238.0952381,,,,,,,,,,,,252.8729,0,252.873,,,,255.2834,255.7824,254.7807,255.2829,253.8724,309,254.7806,255.7824,256.2833,256.2834,257.2366,739,257.2371,2,258.2338,0,36,36,28,1,0.9,0.7,Time
,,Chunyu,1,M,23,2025-04-23_22h37.54.705,Serial_Dependence_U,2023.2.3,Win32,238.0952381,,,,,,,,,,,,258.234,0,258.2342,,,,260.6498,261.1495,260.1456,260.6493,259.2423,0,260.1451,261.1496,261.6497,261.6497,263.0647,1169.3,263.065,4,264.0609,0,37,37,46,1,0.9,0.7,Time
,,Chunyu,1,M,23,2025-04-23_22h37.54.705,Serial_Dependence_U,2023.2.3,Win32,238.0952381,,,,,,,,,,,,264.062,0,264.0624,,,,267.0802,267.5854,266.5746,267.0798,265.0704,80,266.5742,267.5855,268.0814,268.0814,269.5508,1182,269.551,2,270.5422,0,38,38,7,1,1.5,0.3,Time
,,Chunyu,1,M,23,2025-04-23_22h37.54.705,Serial_Dependence_U,2023.2.3,Win32,238.0952381,,,,,,,,,,,,270.5426,0,270.5427,,,,273.3559,273.8475,272.853,273.3557,271.5414,337,272.8526,273.8477,274.3553,274.3553,275.9109,1203.7,275.911,2,276.9191,0,39,39,50,1,1.3,0.7,Time
,,Chunyu,1,M,23,2025-04-23_22h37.54.705,Serial_Dependence_U,2023.2.3,Win32,238.0952381,,,,,,,,,,,,276.9192,0,276.9194,,,,279.3495,279.8461,278.8446,279.3493,277.9394,81,278.8443,279.8462,280.3474,280.3474,281.7675,1107.1,281.7677,4,282.76,0,40,40,1,1,0.9,0.3,Time
,,Chunyu,1,M,23,2025-04-23_22h37.54.705,Serial_Dependence_U,2023.2.3,Win32,238.0952381,,,,,,,,,,,,282.7608,0,282.761,,,,285.486,285.9879,284.9785,285.4856,283.7709,356,284.9783,285.988,286.4793,286.4794,287.839,1121.2,287.8391,2,288.8455,0,41,41,49,1,1.2,0.7,Time
,,Chunyu,1,M,23,2025-04-23_22h37.54.705,Serial_Dependence_U,2023.2.3,Win32,238.0952381,,,,,,,,,,,,288.8465,0,288.8467,,,,291.3613,291.8577,290.8537,291.3611,289.8473,258,290.8531,291.8577,292.3521,292.3521,293.5697,948.9,293.57,2,294.5661,0,42,42,2,1,1,0.3,Time
,,Chunyu,1,M,23,2025-04-23_22h37.54.705,Serial_Dependence_U,2023.2.3,Win32,238.0952381,,,,,,,,,,,,294.5664,0,294.5665,,,,297.0907,297.5905,296.5827,297.0905,295.5741,2,296.5825,297.5905,298.0919,298.0919,299.8089,1442.3,299.809,5,300.8029,0,43,43,29,1,1,0.7,Time
,,Chunyu,1,M,23,2025-04-23_22h37.54.705,Serial_Dependence_U,2023.2.3,Win32,238.0952381,,,,,,,,,,,,300.8037,0,300.8039,,,,303.9248,304.4189,303.409,303.9193,301.8023,106,303.4085,304.4189,304.9288,304.9288,306.6734,1160.4,306.6739,2,307.6653,0,44,44,17,1,1.6,0.7,Time
,,Chunyu,1,M,23,2025-04-23_22h37.54.705,Serial_Dependence_U,2023.2.3,Win32,238.0952381,,,,,,,,,,,,307.6656,0,307.6657,,,,310.4918,310.9925,309.9823,310.4914,308.6774,32,309.9818,310.9925,311.4839,311.4841,313.5885,1578,313.5886,4,314.5851,0,45,45,5,1,1.3,0.3,Time
,,Chunyu,1,M,23,2025-04-23_22h37.54.705,Serial_Dependence_U,2023.2.3,Win32,238.0952381,,,,,,,,,,,,314.5853,0,314.5854,,,,317.3033,317.8048,316.7932,317.303,315.5854,350,316.7927,317.8049,318.3062,318.3062,320.3671,1340.1,320.3674,4,321.3608,0,46,46,22,1,1.2,0.3,Time
,,Chunyu,1,M,23,2025-04-23_22h37.54.705,Serial_Dependence_U,2023.2.3,Win32,238.0952381,,,,,,,,,,,,321.3619,0,321.3624,,,,324.3826,324.8783,323.8735,324.3824,322.3662,27,323.8733,324.8784,325.3795,325.3797,327.0291,1348.9,327.0294,2,328.0274,0,47,47,52,1,1.5,0.7,Time
,,Chunyu,1,M,23,2025-04-23_22h37.54.705,Serial_Dependence_U,2023.2.3,Win32,238.0952381,,,,,,,,,,,,328.0281,0,328.0283,,,,331.0408,331.5451,330.5307,331.0408,329.0266,133,330.5306,331.5451,332.0396,332.0398,334.0216,1543.4,334.0217,3,335.016,0,48,48,25,1,1.5,0.3,Time
,,Chunyu,1,M,23,2025-04-23_22h37.54.705,Serial_Dependence_U,2023.2.3,Win32,238.0952381,,,,,,,,,,,,335.0168,0,335.017,,,,337.5572,338.0556,337.0433,337.557,336.0231,309,337.0429,338.0557,338.5464,338.5465,340.1746,1321.5,340.1748,5,341.1732,0,49,49,20,1,1,0.3,Time
,,Chunyu,1,M,23,2025-04-23_22h37.54.705,Serial_Dependence_U,2023.2.3,Win32,238.0952381,,,,,,,,,,,,341.174,0,341.1742,,,,343.7935,344.2973,343.2905,343.7934,342.1816,73,343.2901,344.2974,344.7944,344.7944,346.303,1226.7,346.3032,4,347.2972,0,50,50,21,1,1.1,0.3,Time
,,Chunyu,1,M,23,2025-04-23_22h37.54.705,Serial_Dependence_U,2023.2.3,Win32,238.0952381,,,,,,,,,,,,347.2981,0,347.2983,,,,349.9337,350.4262,349.4251,349.9331,348.315,23,349.425,350.4262,350.9249,350.925,352.6385,1261.3,352.6386,4,353.6359,0,51,51,30,1,1.1,0.7,Time
,,Chunyu,1,M,23,2025-04-23_22h37.54.705,Serial_Dependence_U,2023.2.3,Win32,238.0952381,,,,,,,,,,,,353.6371,0,353.6377,,,,356.3661,356.8579,355.8528,356.366,354.6485,150,355.8523,356.8579,357.3535,357.3535,359.212,1481.8,359.2121,4,360.2184,0,52,52,13,1,1.2,0.7,Time
,,Chunyu,1,M,23,2025-04-23_22h37.54.705,Serial_Dependence_U,2023.2.3,Win32,238.0952381,,,,,,,,,,,,360.2186,0,360.2187,,,,362.638,363.1291,362.1355,362.6378,361.2284,270,362.1351,363.1292,363.6289,363.629,364.7758,922.4,364.776,3,365.7747,0,53,53,19,1,0.9,0.3,Time
,,Chunyu,1,M,23,2025-04-23_22h37.54.705,Serial_Dependence_U,2023.2.3,Win32,238.0952381,,,,,,,,,,,,365.7757,1,673.5576,s,307.7666,,676.1741,676.6712,675.6717,676.174,674.5629,278,675.6716,676.6714,677.1771,677.1772,678.8298,1377.6,678.8304,4,679.8283,1,0,54,21,1,1.1,0.3,Time
,,Chunyu,1,M,23,2025-04-23_22h37.54.705,Serial_Dependence_U,2023.2.3,Win32,238.0952381,,,,,,,,,,,,679.8287,1,679.8307,,,,682.1523,682.6499,681.6428,682.152,680.8361,17,681.6422,682.6501,683.1421,683.1422,684.3032,981.5,684.3033,4,685.295,1,1,55,45,1,0.8,0.7,Time
,,Chunyu,1,M,23,2025-04-23_22h37.54.705,Serial_Dependence_U,2023.2.3,Win32,238.0952381,,,,,,,,,,,,685.2957,1,685.2959,,,,687.8214,688.3236,687.3112,687.8212,686.3015,152,687.3108,688.3236,688.8235,688.8236,689.7143,668.2,689.7145,1,690.7095,1,2,56,47,1,1,0.7,Time
,,Chunyu,1,M,23,2025-04-23_22h37.54.705,Serial_Dependence_U,2023.2.3,Win32,238.0952381,,,,,,,,,,,,690.7099,1,690.71,,,,693.1366,693.6372,692.623,693.1366,691.716,118,692.6227,693.6372,694.1354,694.1354,695.1978,938.4,695.198,3,696.1938,1,3,57,28,1,0.9,0.7,Time
,,Chunyu,1,M,23,2025-04-23_22h37.54.705,Serial_Dependence_U,2023.2.3,Win32,238.0952381,,,,,,,,,,,,696.1945,1,696.1948,,,,698.9216,699.4185,698.4147,698.9214,697.2036,111,698.4145,699.4185,699.9141,699.9141,701.1989,984.4,701.1993,2,702.2003,1,4,58,13,1,1.2,0.7,Time
,,Chunyu,1,M,23,2025-04-23_22h37.54.705,Serial_Dependence_U,2023.2.3,Win32,238.0952381,,,,,,,,,,,,702.2007,1,702.2008,,,,704.8308,705.3317,704.3217,704.8307,703.2159,269,704.3213,705.3317,705.8329,705.833,707.4067,1168.8,707.4069,4,708.4017,1,5,59,3,1,1.1,0.3,Time
,,Chunyu,1,M,23,2025-04-23_22h37.54.705,Serial_Dependence_U,2023.2.3,Win32,238.0952381,,,,,,,,,,,,708.4026,1,708.403,,,,711.3164,711.813,710.8143,711.316,709.41,354,710.8138,711.813,712.3113,712.3113,713.4747,960,713.475,1,714.4828,1,6,60,24,1,1.4,0.3,Time
,,Chunyu,1,M,23,2025-04-23_22h37.54.705,Serial_Dependence_U,2023.2.3,Win32,238.0952381,,,,,,,,,,,,714.483,1,714.4831,,,,716.7899,717.2852,716.2858,716.7897,715.4819,228,716.2857,717.2853,717.7803,717.7804,719.1081,1009.8,719.1086,4,720.1079,1,7,61,18,1,0.8,0.3,Time
,,Chunyu,1,M,23,2025-04-23_22h37.54.705,Serial_Dependence_U,2023.2.3,Win32,238.0952381,,,,,,,,,,,,720.1086,1,720.1088,,,,722.927,723.425,722.4234,722.9269,721.1103,276,722.4233,723.425,723.9215,723.9215,725.4363,1293.1,725.4365,3,726.436,1,8,62,14,1,1.3,0.7,Time
,,Chunyu,1,M,23,2025-04-23_22h37.54.705,Serial_Dependence_U,2023.2.3,Win32,238.0952381,,,,,,,,,,,,726.4363,1,726.4364,,,,729.2469,729.7426,728.7422,729.2467,727.4347,105,728.7417,729.7426,730.2409,730.2409,731.8855,1272.4,731.8857,3,732.8763,1,9,63,32,1,1.3,0.7,Time
,,Chunyu,1,M,23,2025-04-23_22h37.54.705,Serial_Dependence_U,2023.2.3,Win32,238.0952381,,,,,,,,,,,,732.8769,1,732.8771,,,,735.3961,735.8956,734.8845,735.396,733.8802,313,734.8841,735.8957,736.3894,736.3894,737.7401,1079.3,737.7403,4,738.7453,1,10,64,20,1,1,0.3,Time
,,Chunyu,1,M,23,2025-04-23_22h37.54.705,Serial_Dependence_U,2023.2.3,Win32,238.0952381,,,,,,,,,,,,738.746,1,738.7463,,,,741.5792,742.074,741.0614,741.5791,739.7554,350,741.0612,742.074,742.5695,742.5696,744.0742,1247,744.0745,3,745.073,1,11,65,23,1,1.3,0.3,Time
,,Chunyu,1,M,23,2025-04-23_22h37.54.705,Serial_Dependence_U,2023.2.3,Win32,238.0952381,,,,,,,,,,,,745.0738,1,745.0741,,,,748.1906,748.6835,747.6862,748.1904,746.072,221,747.686,748.6835,749.1769,749.177,750.4642,1049.7,750.4643,1,751.4626,1,12,66,26,1,1.6,0.3,Time
,,Chunyu,1,M,23,2025-04-23_22h37.54.705,Serial_Dependence_U,2023.2.3,Win32,238.0952381,,,,,,,,,,,,751.4628,1,751.4628,,,,754.5943,755.0958,754.0852,754.5942,752.4763,125,754.0846,755.0959,755.5932,755.5933,757.2687,1379.2,757.2689,2,758.2683,1,13,67,44,1,1.6,0.3,Time
,,Chunyu,1,M,23,2025-04-23_22h37.54.705,Serial_Dependence_U,2023.2.3,Win32,238.0952381,,,,,,,,,,,,758.2685,1,758.2686,,,,761.4034,761.9148,760.8894,761.4033,759.2827,207,760.8892,761.9149,762.4078,762.4079,764.4958,1821.7,764.4962,4,765.4934,1,14,68,8,1,1.6,0.3,Time
,,Chunyu,1,M,23,2025-04-23_22h37.54.705,Serial_Dependence_U,2023.2.3,Win32,238.0952381,,,,,,,,,,,,765.4936,1,765.4937,,,,768.213,768.7194,767.7114,768.2127,766.5098,81,767.7112,768.7194,769.2196,769.2197,770.9958,1383.1,770.9964,4,771.9882,1,15,69,4,1,1.2,0.3,Time
,,Chunyu,1,M,23,2025-04-23_22h37.54.705,Serial_Dependence_U,2023.2.3,Win32,238.0952381,,,,,,,,,,,,771.9884,1,771.9885,,,,774.5004,774.9996,773.996,774.5,772.992,204,773.9955,774.9996,775.5032,775.5033,777.1901,1408.6,777.1903,5,778.1818,1,16,70,38,1,1,0.3,Time
,,Chunyu,1,M,23,2025-04-23_22h37.54.705,Serial_Dependence_U,2023.2.3,Win32,238.0952381,,,,,,,,,,,,778.1821,1,778.1822,,,,781.1943,781.6985,780.6934,781.1941,779.1877,271,780.6931,781.6986,782.1904,782.1904,783.9852,1499.1,783.9854,3,784.9966,1,17,71,7,1,1.5,0.3,Time
,,Chunyu,1,M,23,2025-04-23_22h37.54.705,Serial_Dependence_U,2023.2.3,Win32,238.0952381,,,,,,,,,,,,784.9969,1,784.997,,,,787.6101,788.102,787.1054,787.6097,785.995,312,787.105,788.102,788.597,788.597,789.9275,1013.6,789.9279,2,790.931,1,18,72,30,1,1.1,0.7,Time
,,Chunyu,1,M,23,2025-04-23_22h37.54.705,Serial_Dependence_U,2023.2.3,Win32,238.0952381,,,,,,,,,,,,790.9312,1,790.9313,,,,793.2513,793.7503,792.7435,793.2512,791.9355,358,792.7435,793.7505,794.251,794.2511,796.4773,1387.3,796.4777,5,797.4735,1,19,73,0,1,0.8,0.3,Time
,,Chunyu,1,M,23,2025-04-23_22h37.54.705,Serial_Dependence_U,2023.2.3,Win32,238.0952381,,,,,,,,,,,,797.4739,1,797.474,,,,800.0841,800.5795,799.5785,800.084,798.4767,183,799.5784,800.5795,801.0843,801.0843,802.3508,1099.5,802.3509,3,803.346,1,20,74,12,1,1.1,0.7,Time
,,Chunyu,1,M,23,2025-04-23_22h37.54.705,Serial_Dependence_U,2023.2.3,Win32,238.0952381,,,,,,,,,,,,803.3463,1,803.3463,,,,806.3811,806.8744,805.8745,806.3808,804.3544,92,805.8744,806.8745,807.3661,807.3663,808.9981,1254.9,808.9983,2,809.9952,1,21,75,25,1,1.5,0.3,Time
,,Chunyu,1,M,23,2025-04-23_22h37.54.705,Serial_Dependence_U,2023.2.3,Win32,238.0952381,,,,,,,,,,,,809.996,1,809.9962,,,,813.0161,813.5234,812.5105,813.0158,810.9968,151,812.5104,813.5235,814.018,814.0182,815.7173,1376.6,815.7179,2,816.723,1,22,76,34,1,1.5,0.7,Time
,,Chunyu,1,M,23,2025-04-23_22h37.54.705,Serial_Dependence_U,2023.2.3,Win32,238.0952381,,,,,,,,,,,,816.7239,1,816.7241,,,,819.0396,819.5343,818.5309,819.0393,817.7245,356,818.5305,819.5343,820.0368,820.0369,821.6038,1287.3,821.604,5,822.603,1,23,77,36,1,0.8,0.3,Time
,,Chunyu,1,M,23,2025-04-23_22h37.54.705,Serial_Dependence_U,2023.2.3,Win32,238.0952381,,,,,,,,,,,,822.6037,1,822.604,,,,825.4391,825.9375,824.9259,825.439,823.6122,139,824.9257,825.9376,826.4428,826.4429,827.7755,1144,827.7758,2,828.7721,1,24,78,41,1,1.3,0.3,Time
,,Chunyu,1,M,23,2025-04-23_22h37.54.705,Serial_Dependence_U,2023.2.3,Win32,238.0952381,,,,,,,,,,,,828.7725,1,828.7726,,,,831.5789,832.0716,831.0724,831.5787,829.7684,181,831.072,832.0717,832.5711,832.5712,834.2042,1309.4,834.2044,3,835.2059,1,25,79,5,1,1.3,0.3,Time
,,Chunyu,1,M,23,2025-04-23_22h37.54.705,Serial_Dependence_U,2023.2.3,Win32,238.0952381,,,,,,,,,,,,835.2061,1,835.2061,,,,838.3187,838.8073,837.8093,838.3186,836.201,121,837.8091,838.8074,839.3093,839.3094,840.8664,1313.3,840.8666,2,841.8616,1,26,80,17,1,1.6,0.7,Time
,,Chunyu,1,M,23,2025-04-23_22h37.54.705,Serial_Dependence_U,2023.2.3,Win32,238.0952381,,,,,,,,,,,,841.8624,1,841.8626,,,,844.8835,845.3819,844.3723,844.8777,842.8708,14,844.3722,845.3819,845.8904,845.8905,847.581,1409.8,847.5812,2,848.5719,1,27,81,16,1,1.5,0.7,Time
,,Chunyu,1,M,23,2025-04-23_22h37.54.705,Serial_Dependence_U,2023.2.3,Win32,238.0952381,,,,,,,,,,,,848.5727,1,848.573,,,,851.0995,851.5942,850.5943,851.0994,849.5874,49,850.5937,851.5942,852.0887,852.0889,853.6395,1319.6,853.64,5,854.6368,1,28,82,11,1,1,0.7,Time
,,Chunyu,1,M,23,2025-04-23_22h37.54.705,Serial_Dependence_U,2023.2.3,Win32,238.0952381,,,,,,,,,,,,854.638,1,854.6383,,,,857.3563,857.8554,856.855,857.3561,855.6481,118,856.8544,857.8554,858.3544,858.3545,859.8055,1278.8,859.8057,4,860.8014,1,29,83,31,1,1.2,0.7,Time
,,Chunyu,1,M,23,2025-04-23_22h37.54.705,Serial_Dependence_U,2023.2.3,Win32,238.0952381,,,,,,,,,,,,860.8018,1,860.8019,,,,863.7119,864.2096,863.2076,863.7111,861.802,245,863.2074,864.2096,864.7009,864.7009,866.3793,1420,866.3795,3,867.3761,1,30,84,6,1,1.4,0.3,Time
,,Chunyu,1,M,23,2025-04-23_22h37.54.705,Serial_Dependence_U,2023.2.3,Win32,238.0952381,,,,,,,,,,,,867.3763,1,867.3764,,,,869.6948,870.1969,869.1922,869.6947,868.3872,305,869.192,870.1969,870.6953,870.6955,871.9032,1020.8,871.9035,4,872.8976,1,31,85,27,1,0.8,0.7,Time
,,Chunyu,1,M,23,2025-04-23_22h37.54.705,Serial_Dependence_U,2023.2.3,Win32,238.0952381,,,,,,,,,,,,872.898,1,872.8982,,,,875.5269,876.0223,875.0191,875.5264,873.9082,269,875.019,876.0223,876.5241,876.5242,877.5235,740.4,877.5236,1,878.53,1,32,86,48,1,1.1,0.7,Time
,,Chunyu,1,M,23,2025-04-23_22h37.54.705,Serial_Dependence_U,2023.2.3,Win32,238.0952381,,,,,,,,,,,,878.5303,1,878.5303,,,,881.6441,882.1437,881.1416,881.644,879.5397,150,881.1413,882.1438,882.6402,882.6403,884.1126,1261.2,884.113,2,885.1061,1,33,87,35,1,1.6,0.7,Time
,,Chunyu,1,M,23,2025-04-23_22h37.54.705,Serial_Dependence_U,2023.2.3,Win32,238.0952381,,,,,,,,,,,,885.1069,1,885.107,,,,888.0222,888.5251,887.5156,888.0215,886.1147,183,887.5155,888.5252,889.0316,889.0316,890.4389,1188.6,890.4392,2,891.4353,1,34,88,42,1,1.4,0.3,Time
,,Chunyu,1,M,23,2025-04-23_22h37.54.705,Serial_Dependence_U,2023.2.3,Win32,238.0952381,,,,,,,,,,,,891.4362,1,891.4364,,,,893.8615,894.3558,893.357,893.8612,892.4501,118,893.3566,894.3559,894.8505,894.8506,896.1174,1090.3,896.1178,4,897.1179,1,35,89,19,1,0.9,0.3,Time
,,Chunyu,1,M,23,2025-04-23_22h37.54.705,Serial_Dependence_U,2023.2.3,Win32,238.0952381,,,,,,,,,,,,897.1184,1,897.1185,,,,899.5303,900.0286,899.0271,899.53,898.1225,116,899.0267,900.0287,900.5265,900.5266,902.0545,1315.2,902.0547,5,903.0599,1,36,90,37,1,0.9,0.3,Time
,,Chunyu,1,M,23,2025-04-23_22h37.54.705,Serial_Dependence_U,2023.2.3,Win32,238.0952381,,,,,,,,,,,,903.0603,1,903.0603,,,,905.8001,906.3058,905.2927,905.7998,904.0799,56,905.2925,906.3058,906.7936,906.7938,908.3504,1332.6,908.3509,4,909.3584,1,37,91,49,1,1.2,0.7,Time
,,Chunyu,1,M,23,2025-04-23_22h37.54.705,Serial_Dependence_U,2023.2.3,Win32,238.0952381,,,,,,,,,,,,909.3586,1,909.3587,,,,912.2743,912.7655,911.7674,912.2739,910.362,181,911.767,912.7656,913.2632,913.2633,914.8362,1367.3,914.8369,3,915.8406,1,38,92,15,1,1.4,0.7,Time
,,Chunyu,1,M,23,2025-04-23_22h37.54.705,Serial_Dependence_U,2023.2.3,Win32,238.0952381,,,,,,,,,,,,915.8416,1,915.8418,,,,918.8692,919.3771,918.3661,918.869,916.8568,248,918.3657,919.3771,919.8734,919.8734,921.2825,1250.5,921.2828,2,922.2769,1,39,93,52,1,1.5,0.7,Time
,,Chunyu,1,M,23,2025-04-23_22h37.54.705,Serial_Dependence_U,2023.2.3,Win32,238.0952381,,,,,,,,,,,,922.2778,1,922.278,,,,924.9959,925.4931,924.4901,924.9955,923.2894,121,924.4899,925.4931,925.9872,925.9874,927.5187,1239.9,927.5189,3,928.5141,1,40,94,40,1,1.2,0.3,Time
,,Chunyu,1,M,23,2025-04-23_22h37.54.705,Serial_Dependence_U,2023.2.3,Win32,238.0952381,,,,,,,,,,,,928.515,1,928.5152,,,,931.2356,931.7376,930.7318,931.2354,929.5238,329,930.7315,931.7376,932.2416,932.2416,933.8207,1273.6,933.8208,4,934.8161,1,41,95,22,1,1.2,0.3,Time
,,Chunyu,1,M,23,2025-04-23_22h37.54.705,Serial_Dependence_U,2023.2.3,Win32,238.0952381,,,,,,,,,,,,934.8172,1,934.8175,,,,937.343,937.8362,936.8292,937.3427,935.8245,98,936.8288,937.8364,938.3376,938.3377,939.9039,1342.6,939.9041,5,940.9166,1,42,96,29,1,1,0.7,Time
,,Chunyu,1,M,23,2025-04-23_22h37.54.705,Serial_Dependence_U,2023.2.3,Win32,238.0952381,,,,,,,,,,,,940.9168,1,940.9168,,,,943.5459,944.0349,943.0444,943.5458,941.9319,336,943.0443,944.0349,944.5327,944.5327,946.1246,1237.2,946.1247,4,947.123,1,43,97,39,1,1.1,0.3,Time
,,Chunyu,1,M,23,2025-04-23_22h37.54.705,Serial_Dependence_U,2023.2.3,Win32,238.0952381,,,,,,,,,,,,947.1239,1,947.1241,,,,949.9481,950.4458,949.4393,949.945,948.1255,150,949.4391,950.4458,950.9423,950.9424,952.5606,1367.6,952.5609,4,953.5559,1,44,98,50,1,1.3,0.7,Time
,,Chunyu,1,M,23,2025-04-23_22h37.54.705,Serial_Dependence_U,2023.2.3,Win32,238.0952381,,,,,,,,,,,,953.5567,1,953.5569,,,,955.9805,956.4859,955.4735,955.9799,954.5641,355,955.4733,956.4859,956.9834,956.9836,958.6811,1380.7,958.6812,5,959.6836,1,45,99,1,1,0.9,0.3,Time
,,Chunyu,1,M,23,2025-04-23_22h37.54.705,Serial_Dependence_U,2023.2.3,Win32,238.0952381,,,,,,,,,,,,959.6841,1,959.6843,,,,962.2109,962.7147,961.7028,962.2106,960.6978,43,961.7027,962.7147,963.2093,963.2094,964.7354,1254.5,964.7357,4,965.7412,1,46,100,2,1,1,0.3,Time
,,Chunyu,1,M,23,2025-04-23_22h37.54.705,Serial_Dependence_U,2023.2.3,Win32,238.0952381,,,,,,,,,,,,965.7415,1,965.7416,,,,968.8749,969.3698,968.372,968.8747,966.7611,78,968.3715,969.3699,969.8634,969.8635,971.647,1475.9,971.6473,2,972.6424,1,47,101,53,1,1.6,0.7,Time
,,Chunyu,1,M,23,2025-04-23_22h37.54.705,Serial_Dependence_U,2023.2.3,Win32,238.0952381,,,,,,,,,,,,972.6434,1,972.6436,,,,975.5739,976.0727,975.0592,975.5739,973.6513,78,975.059,976.0727,976.5712,976.5712,978.4245,1572,978.4247,4,979.4172,1,48,102,33,1,1.4,0.7,Time
,,Chunyu,1,M,23,2025-04-23_22h37.54.705,Serial_Dependence_U,2023.2.3,Win32,238.0952381,,,,,,,,,,,,979.4182,1,979.4184,,,,982.4515,982.9477,981.9392,982.4514,980.428,86,981.9391,982.9478,983.4412,983.4412,985.3144,1527.2,985.3147,3,986.3079,1,49,103,43,1,1.5,0.3,Time
,,Chunyu,1,M,23,2025-04-23_22h37.54.705,Serial_Dependence_U,2023.2.3,Win32,238.0952381,,,,,,,,,,,,986.3086,1,986.3089,,,,989.2138,989.7176,988.7112,989.2137,987.3075,339,988.7109,989.7177,990.2214,990.2215,991.7636,1372.3,991.7638,3,992.7646,1,50,104,51,1,1.4,0.7,Time
,,Chunyu,1,M,23,2025-04-23_22h37.54.705,Serial_Dependence_U,2023.2.3,Win32,238.0952381,,,,,,,,,,,,992.7654,1,992.7655,,,,995.1896,995.6915,994.6766,995.1896,993.7709,297,994.6764,995.6916,996.186,996.1861,997.4482,946.8,997.4487,4,998.4537,1,51,105,10,1,0.9,0.7,Time
,,Chunyu,1,M,23,2025-04-23_22h37.54.705,Serial_Dependence_U,2023.2.3,Win32,238.0952381,,,,,,,,,,,,998.454,1,998.4541,,,,1000.7801,1001.2771,1000.2748,1000.78,999.4685,312,1000.2748,1001.2771,1001.7757,1001.7758,1003.283,1241.9,1003.2832,5,1004.2796,1,52,106,9,1,0.8,0.7,Time
,,Chunyu,1,M,23,2025-04-23_22h37.54.705,Serial_Dependence_U,2023.2.3,Win32,238.0952381,,,,,,,,,,,,1004.28,1,1004.2801,,,,1006.7048,1007.2013,1006.2032,1006.7046,1005.2969,193,1006.203,1007.2015,1007.7022,1007.7022,1009.1149,1094.6,1009.1151,4,1010.112,1,53,107,46,1,0.9,0.7,Time
,,Chunyu,1,M,23,2025-04-23_22h37.54.705,Serial_Dependence_U,2023.2.3,Win32,238.0952381,,,,,,,,,,,,1010.1124,2,1017.9088,s,7.7836,,1020.6235,1021.1228,1020.116,1020.6234,1018.9101,210,1020.1156,1021.1228,1021.6218,1021.6219,1023.8081,1263.4,1023.8082,4,1024.8037,2,0,108,40,1,1.2,0.3,Time
,,Chunyu,1,M,23,2025-04-23_22h37.54.705,Serial_Dependence_U,2023.2.3,Win32,238.0952381,,,,,,,,,,,,1024.8039,2,1024.805,,,,1027.4181,1027.9144,1026.9168,1027.4177,1025.8109,195,1026.9166,1027.9144,1028.4182,1028.4183,1030.0093,1361.2,1030.0097,4,1031.0029,2,1,109,12,1,1.1,0.7,Time
,,Chunyu,1,M,23,2025-04-23_22h37.54.705,Serial_Dependence_U,2023.2.3,Win32,238.0952381,,,,,,,,,,,,1031.0039,2,1031.0045,,,,1034.1138,1034.6129,1033.6099,1034.1134,1032.0079,138,1033.6096,1034.6129,1035.1133,1035.1133,1036.7944,1429.7,1036.7945,2,1037.7907,2,2,110,53,1,1.6,0.7,Time
,,Chunyu,1,M,23,2025-04-23_22h37.54.705,Serial_Dependence_U,2023.2.3,Win32,238.0952381,,,,,,,,,,,,1037.7916,2,1037.7918,,,,1040.9223,1041.4181,1040.4107,1040.922,1038.8028,262,1040.4099,1041.4182,1041.9175,1041.9175,1043.4444,1280.2,1043.4446,2,1044.4409,2,3,111,8,1,1.6,0.3,Time
,,Chunyu,1,M,23,2025-04-23_22h37.54.705,Serial_Dependence_U,2023.2.3,Win32,238.0952381,,,,,,,,,,,,1044.4412,2,1044.4413,,,,1047.4667,1047.9582,1046.9659,1047.4666,1045.4536,353,1046.9657,1047.9583,1048.4568,1048.4568,1050.3388,1544,1050.3394,3,1051.3337,2,4,112,43,1,1.5,0.3,Time
,,Chunyu,1,M,23,2025-04-23_22h37.54.705,Serial_Dependence_U,2023.2.3,Win32,238.0952381,,,,,,,,,,,,1051.3339,2,1051.3342,,,,1054.3651,1054.8634,1053.8606,1054.3649,1052.3564,286,1053.8603,1054.8635,1055.3607,1055.3607,1056.8591,1263.1,1056.8593,2,1057.85,2,5,113,7,1,1.5,0.3,Time
,,Chunyu,1,M,23,2025-04-23_22h37.54.705,Serial_Dependence_U,2023.2.3,Win32,238.0952381,,,,,,,,,,,,1057.8512,2,1057.8515,,,,1060.7722,1061.2655,1060.265,1060.7721,1058.8611,127,1060.2648,1061.2655,1061.7599,1061.7599,1063.4389,1426.6,1063.4391,3,1064.4396,2,6,114,33,1,1.4,0.7,Time
,,Chunyu,1,M,23,2025-04-23_22h37.54.705,Serial_Dependence_U,2023.2.3,Win32,238.0952381,,,,,,,,,,,,1064.4398,2,1064.4399,,,,1067.1557,1067.6471,1066.6499,1067.1552,1065.4416,278,1066.6498,1067.6471,1068.1489,1068.149,1069.7134,1315.4,1069.7135,4,1070.7089,2,7,115,31,1,1.2,0.7,Time
,,Chunyu,1,M,23,2025-04-23_22h37.54.705,Serial_Dependence_U,2023.2.3,Win32,238.0952381,,,,,,,,,,,,1070.7099,2,1070.71,,,,1073.2463,1073.7527,1072.7295,1073.2462,1071.7221,247,1072.7295,1073.7527,1074.2484,1074.2484,1075.6545,1178.6,1075.6549,4,1076.6606,2,8,116,11,1,1,0.7,Time
,,Chunyu,1,M,23,2025-04-23_22h37.54.705,Serial_Dependence_U,2023.2.3,Win32,238.0952381,,,,,,,,,,,,1076.6609,2,1076.6611,,,,1079.18,1079.6803,1078.6644,1079.18,1077.6583,151,1078.6641,1079.6803,1080.1793,1080.1794,1081.5882,1218.3,1081.5884,4,1082.5826,2,9,117,20,1,1,0.3,Time
,,Chunyu,1,M,23,2025-04-23_22h37.54.705,Serial_Dependence_U,2023.2.3,Win32,238.0952381,,,,,,,,,,,,1082.5834,2,1082.5836,,,,1085.2024,1085.7019,1084.6924,1085.2006,1083.5789,345,1084.6923,1085.7019,1086.199,1086.1991,1087.7102,1316.4,1087.7105,4,1088.7044,2,10,118,39,1,1.1,0.3,Time
,,Chunyu,1,M,23,2025-04-23_22h37.54.705,Serial_Dependence_U,2023.2.3,Win32,238.0952381,,,,,,,,,,,,1088.7053,2,1088.7056,,,,1091.7307,1092.2312,1091.2262,1091.7303,1089.7132,82,1091.2261,1092.2313,1092.7403,1092.7403,1094.2343,1319.2,1094.2344,2,1095.2278,2,11,119,16,1,1.5,0.7,Time
,,Chunyu,1,M,23,2025-04-23_22h37.54.705,Serial_Dependence_U,2023.2.3,Win32,238.0952381,,,,,,,,,,,,1095.2281,2,1095.2282,,,,1097.7351,1098.2246,1097.2321,1097.7349,1096.2299,359,1097.232,1098.2246,1098.7175,1098.7176,1099.8836,928.3,1099.8839,2,1100.8894,2,12,120,29,1,1,0.7,Time
,,Chunyu,1,M,23,2025-04-23_22h37.54.705,Serial_Dependence_U,2023.2.3,Win32,238.0952381,,,,,,,,,,,,1100.8896,2,1100.8897,,,,1103.7102,1104.2012,1103.2011,1103.7098,1101.8908,266,1103.2009,1104.2013,1104.6976,1104.6976,1106.3215,1379.3,1106.3217,4,1107.3224,2,13,121,50,1,1.3,0.7,Time
,,Chunyu,1,M,23,2025-04-23_22h37.54.705,Serial_Dependence_U,2023.2.3,Win32,238.0952381,,,,,,,,,,,,1107.3228,2,1107.3228,,,,1109.6456,1110.1382,1109.1415,1109.6454,1108.3258,196,1109.1411,1110.1383,1110.6414,1110.6415,1111.8979,1027,1111.8982,4,1112.8942,2,14,122,18,1,0.8,0.3,Time
,,Chunyu,1,M,23,2025-04-23_22h37.54.705,Serial_Dependence_U,2023.2.3,Win32,238.0952381,,,,,,,,,,,,1112.8945,2,1112.8946,,,,1115.5093,1116.007,1115.002,1115.5092,1113.8993,62,1115.0019,1116.007,1116.506,1116.506,1118.0637,1298.4,1118.0643,4,1119.0691,2,15,123,30,1,1.1,0.7,Time
,,Chunyu,1,M,23,2025-04-23_22h37.54.705,Serial_Dependence_U,2023.2.3,Win32,238.0952381,,,,,,,,,,,,1119.0694,2,1119.0694,,,,1121.5117,1122.0141,1120.9914,1121.5114,1120.0736,225,1120.9912,1122.0141,1122.5106,1122.5107,1123.8869,1079.9,1123.887,4,1124.8925,2,16,124,10,1,0.9,0.7,Time
,,Chunyu,1,M,23,2025-04-23_22h37.54.705,Serial_Dependence_U,2023.2.3,Win32,238.0952381,,,,,,,,,,,,1124.8928,2,1124.8928,,,,1127.916,1128.4096,1127.4116,1127.9156,1125.8985,103,1127.4113,1128.4096,1128.9133,1128.9133,1130.389,1220.1,1130.3894,2,1131.3884,2,17,125,25,1,1.5,0.3,Time
,,Chunyu,1,M,23,2025-04-23_22h37.54.705,Serial_Dependence_U,2023.2.3,Win32,238.0952381,,,,,,,,,,,,1131.3895,2,1131.3897,,,,1133.9946,1134.5157,1133.4933,1133.9942,1132.3892,95,1133.4932,1134.5157,1135.0013,1135.0015,1136.5214,1304,1136.5217,4,1137.5224,2,18,126,48,1,1.1,0.7,Time
,,Chunyu,1,M,23,2025-04-23_22h37.54.705,Serial_Dependence_U,2023.2.3,Win32,238.0952381,,,,,,,,,,,,1137.5228,2,1137.523,,,,1140.6519,1141.1491,1140.1388,1140.6517,1138.5167,328,1140.1386,1141.1493,1141.6462,1141.6464,1143.5252,1616.7,1143.5254,3,1144.5201,2,19,127,26,1,1.6,0.3,Time
,,Chunyu,1,M,23,2025-04-23_22h37.54.705,Serial_Dependence_U,2023.2.3,Win32,238.0952381,,,,,,,,,,,,1144.5211,2,1144.5213,,,,1147.5381,1148.0321,1147.028,1147.5379,1145.5237,23,1147.0279,1148.0323,1148.528,1148.528,1150.3603,1612.7,1150.3604,4,1151.3562,2,20,128,52,1,1.5,0.7,Time
,,Chunyu,1,M,23,2025-04-23_22h37.54.705,Serial_Dependence_U,2023.2.3,Win32,238.0952381,,,,,,,,,,,,1151.3564,2,1151.3565,,,,1154.0709,1154.568,1153.5696,1154.0705,1152.3576,143,1153.5694,1154.5681,1155.0769,1155.077,1156.719,1422.4,1156.7195,4,1157.7224,2,21,129,49,1,1.2,0.7,Time
,,Chunyu,1,M,23,2025-04-23_22h37.54.705,Serial_Dependence_U,2023.2.3,Win32,238.0952381,,,,,,,,,,,,1157.7226,2,1157.7227,,,,1160.0605,1160.5595,1159.543,1160.0603,1158.7345,99,1159.5428,1160.5595,1161.0591,1161.0593,1161.9063,703,1161.9066,2,1162.8976,2,22,130,9,1,0.8,0.7,Time
,,Chunyu,1,M,23,2025-04-23_22h37.54.705,Serial_Dependence_U,2023.2.3,Win32,238.0952381,,,,,,,,,,,,1162.898,2,1162.8981,,,,1165.4184,1165.9184,1164.9105,1165.4179,1163.9067,1,1164.9103,1165.9185,1166.4175,1166.4176,1167.5623,954,1167.5626,3,1168.5601,2,23,131,38,1,1,0.3,Time
,,Chunyu,1,M,23,2025-04-23_22h37.54.705,Serial_Dependence_U,2023.2.3,Win32,238.0952381,,,,,,,,,,,,1168.561,2,1168.5612,,,,1171.0903,1171.5916,1170.582,1171.0901,1169.5706,193,1170.5818,1171.5916,1172.0982,1172.0982,1173.632,1318.8,1173.6323,5,1174.6379,2,24,132,2,1,1,0.3,Time
,,Chunyu,1,M,23,2025-04-23_22h37.54.705,Serial_Dependence_U,2023.2.3,Win32,238.0952381,,,,,,,,,,,,1174.6386,2,1174.6388,,,,1177.061,1177.5608,1176.5475,1177.0607,1175.644,35,1176.5471,1177.5608,1178.068,1178.0681,1179.4487,1125,1179.4488,4,1180.4566,2,25,133,1,1,0.9,0.3,Time
,,Chunyu,1,M,23,2025-04-23_22h37.54.705,Serial_Dependence_U,2023.2.3,Win32,238.0952381,,,,,,,,,,,,1180.4571,2,1180.4572,,,,1183.3783,1183.8814,1182.8748,1183.3779,1181.4581,61,1182.8744,1183.8815,1184.3823,1184.3823,1185.8835,1226.1,1185.8837,2,1186.8885,2,26,134,15,1,1.4,0.7,Time
,,Chunyu,1,M,23,2025-04-23_22h37.54.705,Serial_Dependence_U,2023.2.3,Win32,238.0952381,,,,,,,,,,,,1186.8887,2,1186.8888,,,,1189.5071,1190.0113,1189.0033,1189.5067,1187.8972,352,1189.0029,1190.0113,1190.507,1190.5072,1191.8742,1186.8,1191.8747,4,1192.8639,2,27,135,3,1,1.1,0.3,Time
,,Chunyu,1,M,23,2025-04-23_22h37.54.705,Serial_Dependence_U,2023.2.3,Win32,238.0952381,,,,,,,,,,,,1192.8648,2,1192.865,,,,1195.2709,1195.7714,1194.7684,1195.2704,1193.8652,180,1194.7681,1195.7715,1196.2733,1196.2734,1197.4947,975.2,1197.4949,4,1198.4893,2,28,136,28,1,0.9,0.7,Time
,,Chunyu,1,M,23,2025-04-23_22h37.54.705,Serial_Dependence_U,2023.2.3,Win32,238.0952381,,,,,,,,,,,,1198.4902,2,1198.4904,,,,1201.2109,1201.7193,1200.7026,1201.2106,1199.5003,11,1200.7024,1201.7193,1202.2164,1202.2165,1203.6533,1159.9,1203.6537,3,1204.655,2,29,137,4,1,1.2,0.3,Time
,,Chunyu,1,M,23,2025-04-23_22h37.54.705,Serial_Dependence_U,2023.2.3,Win32,238.0952381,,,,,,,,,,,,1204.6554,2,1204.6555,,,,1207.0763,1207.5749,1206.5677,1207.0759,1205.6566,249,1206.5676,1207.575,1208.0701,1208.0702,1209.3819,1120.4,1209.3823,4,1210.3903,2,30,138,46,1,0.9,0.7,Time
,,Chunyu,1,M,23,2025-04-23_22h37.54.705,Serial_Dependence_U,2023.2.3,Win32,238.0952381,,,,,,,,,,,,1210.3905,2,1210.3906,,,,1212.8093,1213.3047,1212.305,1212.809,1211.4005,318,1212.3046,1213.3048,1213.8003,1213.8003,1215.1872,1099.9,1215.1875,4,1216.19,2,31,139,19,1,0.9,0.3,Time
,,Chunyu,1,M,23,2025-04-23_22h37.54.705,Serial_Dependence_U,2023.2.3,Win32,238.0952381,,,,,,,,,,,,1216.1902,2,1216.1902,,,,1218.9017,1219.3957,1218.3974,1218.9014,1217.1914,345,1218.397,1219.3957,1219.8944,1219.8944,1221.3457,1163.1,1221.3459,3,1222.3557,2,32,140,22,1,1.2,0.3,Time
,,Chunyu,1,M,23,2025-04-23_22h37.54.705,Serial_Dependence_U,2023.2.3,Win32,238.0952381,,,,,,,,,,,,1222.3561,2,1222.3562,,,,1225.1791,1225.677,1224.6706,1225.1787,1223.3656,153,1224.6702,1225.6771,1226.1756,1226.1756,1227.4892,1145.7,1227.4895,2,1228.488,2,33,141,5,1,1.3,0.3,Time
,,Chunyu,1,M,23,2025-04-23_22h37.54.705,Serial_Dependence_U,2023.2.3,Win32,238.0952381,,,,,,,,,,,,1228.4893,2,1228.4897,,,,1230.8179,1231.3126,1230.3104,1230.8178,1229.498,197,1230.3102,1231.3127,1231.8058,1231.8059,1232.8971,894.3,1232.8975,4,1233.8861,2,34,142,27,1,0.8,0.7,Time
,,Chunyu,1,M,23,2025-04-23_22h37.54.705,Serial_Dependence_U,2023.2.3,Win32,238.0952381,,,,,,,,,,,,1233.8868,2,1233.887,,,,1236.7139,1237.2093,1236.2033,1236.7138,1234.8927,137,1236.2028,1237.2093,1237.7099,1237.71,1239.1053,1152.8,1239.1055,2,1240.1049,2,35,143,14,1,1.3,0.7,Time
,,Chunyu,1,M,23,2025-04-23_22h37.54.705,Serial_Dependence_U,2023.2.3,Win32,238.0952381,,,,,,,,,,,,1240.1057,2,1240.1059,,,,1242.4284,1242.9222,1241.9218,1242.4283,1241.1111,79,1241.9217,1242.9222,1243.4207,1243.4207,1244.7545,1150,1244.7547,5,1245.7529,2,36,144,45,1,0.8,0.7,Time
,,Chunyu,1,M,23,2025-04-23_22h37.54.705,Serial_Dependence_U,2023.2.3,Win32,238.0952381,,,,,,,,,,,,1245.7533,2,1245.7534,,,,1248.3786,1248.8762,1247.8774,1248.3782,1246.7627,61,1247.8772,1248.8763,1249.3841,1249.3841,1250.6553,1080.1,1250.6555,3,1251.6513,2,37,145,21,1,1.1,0.3,Time
,,Chunyu,1,M,23,2025-04-23_22h37.54.705,Serial_Dependence_U,2023.2.3,Win32,238.0952381,,,,,,,,,,,,1251.6517,2,1251.6518,,,,1254.4629,1254.9634,1253.955,1254.4627,1252.6496,246,1253.9546,1254.9634,1255.4574,1255.4575,1257.0246,1325.4,1257.0248,3,1258.0171,2,38,146,23,1,1.3,0.3,Time
,,Chunyu,1,M,23,2025-04-23_22h37.54.705,Serial_Dependence_U,2023.2.3,Win32,238.0952381,,,,,,,,,,,,1258.0184,2,1258.0187,,,,1260.3322,1260.8297,1259.8285,1260.332,1259.02,18,1259.8284,1260.8297,1261.329,1261.329,1262.4218,845.5,1262.4219,4,1263.4289,2,39,147,0,1,0.8,0.3,Time
,,Chunyu,1,M,23,2025-04-23_22h37.54.705,Serial_Dependence_U,2023.2.3,Win32,238.0952381,,,,,,,,,,,,1263.4293,2,1263.4294,,,,1266.5646,1267.062,1266.0589,1266.5641,1264.4373,265,1266.0588,1267.0621,1267.5602,1267.5603,1268.8781,1134,1268.8783,2,1269.8814,2,40,148,17,1,1.6,0.7,Time
,,Chunyu,1,M,23,2025-04-23_22h37.54.705,Serial_Dependence_U,2023.2.3,Win32,238.0952381,,,,,,,,,,,,1269.882,2,1269.8823,,,,1272.79,1273.2854,1272.2859,1272.7892,1270.8845,262,1272.2854,1273.2855,1273.7801,1273.7802,1275.2861,1330.9,1275.2862,3,1276.2855,2,41,149,6,1,1.4,0.3,Time
,,Chunyu,1,M,23,2025-04-23_22h37.54.705,Serial_Dependence_U,2023.2.3,Win32,238.0952381,,,,,,,,,,,,1276.2861,2,1276.2865,,,,1279.216,1279.7122,1278.7081,1279.2158,1277.2963,183,1278.7077,1279.7122,1280.2047,1280.2049,1281.8256,1326.8,1281.8259,2,1282.8293,2,42,150,51,1,1.4,0.7,Time
,,Chunyu,1,M,23,2025-04-23_22h37.54.705,Serial_Dependence_U,2023.2.3,Win32,238.0952381,,,,,,,,,,,,1282.8296,2,1282.8297,,,,1285.7584,1286.2634,1285.2482,1285.7583,1283.8436,41,1285.2479,1286.2635,1286.756,1286.7562,1288.4972,1481.8,1288.4974,4,1289.4912,2,43,151,24,1,1.4,0.3,Time
,,Chunyu,1,M,23,2025-04-23_22h37.54.705,Serial_Dependence_U,2023.2.3,Win32,238.0952381,,,,,,,,,,,,1289.4916,2,1289.4918,,,,1291.9097,1292.4107,1291.4061,1291.9097,1290.4943,10,1291.406,1292.4107,1292.912,1292.912,1294.6642,1316.3,1294.6645,5,1295.6526,2,44,152,37,1,0.9,0.3,Time
,,Chunyu,1,M,23,2025-04-23_22h37.54.705,Serial_Dependence_U,2023.2.3,Win32,238.0952381,,,,,,,,,,,,1295.653,2,1295.6531,,,,1298.4733,1298.9755,1297.9695,1298.473,1296.6568,76,1297.9693,1298.9755,1299.4725,1299.4725,1300.9738,1208.6,1300.974,2,1301.9716,2,45,153,41,1,1.3,0.3,Time
,,Chunyu,1,M,23,2025-04-23_22h37.54.705,Serial_Dependence_U,2023.2.3,Win32,238.0952381,,,,,,,,,,,,1301.972,2,1301.9721,,,,1305.0958,1305.5917,1304.592,1305.0954,1302.9774,317,1304.5919,1305.5918,1306.088,1306.0881,1307.5833,1277.9,1307.5834,2,1308.5831,2,46,154,44,1,1.6,0.3,Time
,,Chunyu,1,M,23,2025-04-23_22h37.54.705,Serial_Dependence_U,2023.2.3,Win32,238.0952381,,,,,,,,,,,,1308.5833,2,1308.5833,,,,1311.509,1312.0048,1310.9914,1311.5038,1309.5815,276,1310.9913,1312.0051,1312.5137,1312.5137,1313.9533,1207.5,1313.9535,2,1314.9456,2,47,155,42,1,1.4,0.3,Time
,,Chunyu,1,M,23,2025-04-23_22h37.54.705,Serial_Dependence_U,2023.2.3,Win32,238.0952381,,,,,,,,,,,,1314.9466,2,1314.9468,,,,1317.9785,1318.4649,1317.4668,1317.9782,1315.9599,201,1317.4663,1318.4649,1318.9598,1318.9598,1320.7944,1525.6,1320.7946,3,1321.7987,2,48,156,34,1,1.5,0.7,Time
,,Chunyu,1,M,23,2025-04-23_22h37.54.705,Serial_Dependence_U,2023.2.3,Win32,238.0952381,,,,,,,,,,,,1321.7998,2,1321.8,,,,1324.1134,1324.6133,1323.6019,1324.1131,1322.8008,219,1323.6017,1324.6134,1325.1089,1325.1089,1326.8978,1455.5,1326.8983,5,1327.8936,2,49,157,36,1,0.8,0.3,Time
,,Chunyu,1,M,23,2025-04-23_22h37.54.705,Serial_Dependence_U,2023.2.3,Win32,238.0952381,,,,,,,,,,,,1327.8948,2,1327.8951,,,,1330.4147,1330.9141,1329.9127,1330.4143,1328.9007,25,1329.9123,1330.9142,1331.4067,1331.4068,1332.9126,1244.8,1332.913,4,1333.9179,2,50,158,47,1,1,0.7,Time
,,Chunyu,1,M,23,2025-04-23_22h37.54.705,Serial_Dependence_U,2023.2.3,Win32,238.0952381,,,,,,,,,,,,1333.9187,2,1333.9189,,,,1337.0448,1337.5431,1336.5393,1337.0448,1334.9281,356,1336.5389,1337.5431,1338.0472,1338.0472,1339.8605,1596.8,1339.8608,3,1340.8557,2,51,159,35,1,1.6,0.7,Time
,,Chunyu,1,M,23,2025-04-23_22h37.54.705,Serial_Dependence_U,2023.2.3,Win32,238.0952381,,,,,,,,,,,,1340.8559,2,1340.856,,,,1343.5729,1344.0758,1343.0594,1343.5728,1341.8551,209,1343.0592,1344.0758,1344.57,1344.5701,1346.4791,1577.2,1346.4797,5,1347.4726,2,52,160,13,1,1.2,0.7,Time
,,Chunyu,1,M,23,2025-04-23_22h37.54.705,Serial_Dependence_U,2023.2.3,Win32,238.0952381,,,,,,,,,,,,1347.4738,2,1347.4742,,,,1350.3172,1350.8089,1349.8129,1350.3171,1348.4869,209,1349.8127,1350.8089,1351.3035,1351.3037,1353.0467,1477.7,1353.0468,4,1354.0453,2,53,161,32,1,1.3,0.7,Time
,,Chunyu,1,M,23,2025-04-23_22h37.54.705,Serial_Dependence_U,2023.2.3,Win32,238.0952381,,,,,,,,,,,,1354.0457,3,1560.8364,s,206.7753,,1563.5522,1564.0482,1563.0496,1563.5521,1561.843,209,1563.0492,1564.0482,1564.5483,1564.5484,1566.0418,1179.3,1566.0421,3,1567.0303,3,0,162,31,1,1.2,0.7,Time
,,Chunyu,1,M,23,2025-04-23_22h37.54.705,Serial_Dependence_U,2023.2.3,Win32,238.0952381,,,,,,,,,,,,1567.0313,3,1567.0337,,,,1569.5524,1570.0461,1569.0447,1569.5519,1568.0363,31,1569.0444,1570.0463,1570.5481,1570.5482,1571.7647,1078.1,1571.7649,4,1572.7551,3,1,163,2,1,1,0.3,Time
,,Chunyu,1,M,23,2025-04-23_22h37.54.705,Serial_Dependence_U,2023.2.3,Win32,238.0952381,,,,,,,,,,,,1572.7559,3,1572.7562,,,,1575.1767,1575.6754,1574.668,1575.1763,1573.752,249,1574.6679,1575.6755,1576.1721,1576.1722,1577.3916,1068.7,1577.3918,4,1578.3932,3,2,164,10,1,0.9,0.7,Time
,,Chunyu,1,M,23,2025-04-23_22h37.54.705,Serial_Dependence_U,2023.2.3,Win32,238.0952381,,,,,,,,,,,,1578.3937,3,1578.3939,,,,1580.7286,1581.2319,1580.2178,1580.7283,1579.4024,292,1580.2177,1581.2319,1581.7383,1581.7383,1582.9423,1104.4,1582.9425,5,1583.9444,3,3,165,27,1,0.8,0.7,Time
,,Chunyu,1,M,23,2025-04-23_22h37.54.705,Serial_Dependence_U,2023.2.3,Win32,238.0952381,,,,,,,,,,,,1583.9456,3,1583.9458,,,,1586.9598,1587.4527,1586.4528,1586.9593,1584.9466,32,1586.4528,1587.4528,1587.9454,1587.9455,1589.3598,1293,1589.3603,2,1590.354,3,4,166,25,1,1.5,0.3,Time
,,Chunyu,1,M,23,2025-04-23_22h37.54.705,Serial_Dependence_U,2023.2.3,Win32,238.0952381,,,,,,,,,,,,1590.3548,3,1590.355,,,,1592.9877,1593.4824,1592.4739,1592.9876,1591.361,320,1592.4739,1593.4825,1593.9876,1593.9877,1595.6026,1406.7,1595.6028,4,1596.6027,3,5,167,39,1,1.1,0.3,Time
,,Chunyu,1,M,23,2025-04-23_22h37.54.705,Serial_Dependence_U,2023.2.3,Win32,238.0952381,,,,,,,,,,,,1596.6035,3,1596.6038,,,,1599.3163,1599.8148,1598.8082,1599.3162,1597.6054,80,1598.8078,1599.8148,1600.3073,1600.3073,1601.7789,1280.5,1601.7793,4,1602.7809,3,6,168,4,1,1.2,0.3,Time
,,Chunyu,1,M,23,2025-04-23_22h37.54.705,Serial_Dependence_U,2023.2.3,Win32,238.0952381,,,,,,,,,,,,1602.7817,3,1602.7818,,,,1605.3005,1605.8051,1604.7952,1605.3003,1603.7842,79,1604.7951,1605.8051,1606.2967,1606.2968,1607.4722,1069.9,1607.4724,4,1608.4762,3,7,169,11,1,1,0.7,Time
,,Chunyu,1,M,23,2025-04-23_22h37.54.705,Serial_Dependence_U,2023.2.3,Win32,238.0952381,,,,,,,,,,,,1608.4771,3,1608.4772,,,,1611.1087,1611.6046,1610.6066,1611.1086,1609.4971,134,1610.6061,1611.6047,1612.1053,1612.1053,1613.5787,1260.2,1613.5789,4,1614.5833,3,8,170,21,1,1.1,0.3,Time
,,Chunyu,1,M,23,2025-04-23_22h37.54.705,Serial_Dependence_U,2023.2.3,Win32,238.0952381,,,,,,,,,,,,1614.5836,3,1614.5837,,,,1617.1001,1617.6111,1616.5875,1617.0997,1615.585,335,1616.587,1617.6111,1618.1078,1618.1079,1619.3601,1093,1619.3602,4,1620.3607,3,9,171,29,1,1,0.7,Time
,,Chunyu,1,M,23,2025-04-23_22h37.54.705,Serial_Dependence_U,2023.2.3,Win32,238.0952381,,,,,,,,,,,,1620.361,3,1620.3611,,,,1623.2748,1623.7728,1622.7724,1623.2743,1621.3706,329,1622.7721,1623.7728,1624.2655,1624.2656,1625.669,1142.5,1625.6691,2,1626.6758,3,10,172,33,1,1.4,0.7,Time
,,Chunyu,1,M,23,2025-04-23_22h37.54.705,Serial_Dependence_U,2023.2.3,Win32,238.0952381,,,,,,,,,,,,1626.676,3,1626.6761,,,,1629.3099,1629.8108,1628.8016,1629.3098,1627.6865,67,1628.8015,1629.8109,1630.3142,1630.3143,1631.7475,1224.2,1631.7477,4,1632.74,3,11,173,12,1,1.1,0.7,Time
,,Chunyu,1,M,23,2025-04-23_22h37.54.705,Serial_Dependence_U,2023.2.3,Win32,238.0952381,,,,,,,,,,,,1632.7408,3,1632.741,,,,1635.7756,1636.2774,1635.272,1635.7752,1633.7601,202,1635.2719,1636.2774,1636.7758,1636.7761,1638.3433,1393.5,1638.3436,2,1639.3478,3,12,174,16,1,1.5,0.7,Time
,,Chunyu,1,M,23,2025-04-23_22h37.54.705,Serial_Dependence_U,2023.2.3,Win32,238.0952381,,,,,,,,,,,,1639.348,3,1639.348,,,,1641.979,1642.4729,1641.4673,1641.9789,1640.3515,198,1641.4671,1642.473,1642.9757,1642.9758,1644.5934,1392.2,1644.5937,4,1645.5869,3,13,175,30,1,1.1,0.7,Time
,,Chunyu,1,M,23,2025-04-23_22h37.54.705,Serial_Dependence_U,2023.2.3,Win32,238.0952381,,,,,,,,,,,,1645.5871,3,1645.5871,,,,1648.3971,1648.8904,1647.8918,1648.3968,1646.5885,240,1647.8911,1648.8906,1649.3863,1649.3865,1651.0324,1328.6,1651.0325,3,1652.0264,3,14,176,41,1,1.3,0.3,Time
,,Chunyu,1,M,23,2025-04-23_22h37.54.705,Serial_Dependence_U,2023.2.3,Win32,238.0952381,,,,,,,,,,,,1652.027,3,1652.0273,,,,1655.0504,1655.5479,1654.5489,1655.0503,1653.0324,252,1654.5487,1655.5479,1656.0415,1656.0415,1657.694,1379,1657.6943,2,1658.6917,3,15,177,7,1,1.5,0.3,Time
,,Chunyu,1,M,23,2025-04-23_22h37.54.705,Serial_Dependence_U,2023.2.3,Win32,238.0952381,,,,,,,,,,,,1658.6919,3,1658.6919,,,,1661.4239,1661.9222,1660.9137,1661.4237,1659.7002,5,1660.9135,1661.9223,1662.4238,1662.4238,1664.0467,1373,1664.047,4,1665.0425,3,16,178,49,1,1.2,0.7,Time
,,Chunyu,1,M,23,2025-04-23_22h37.54.705,Serial_Dependence_U,2023.2.3,Win32,238.0952381,,,,,,,,,,,,1665.0436,3,1665.0439,,,,1667.9754,1668.4765,1667.47,1667.9753,1666.0603,118,1667.4699,1668.4766,1668.9697,1668.9697,1670.7255,1398,1670.7256,3,1671.7156,3,17,179,15,1,1.4,0.7,Time
,,Chunyu,1,M,23,2025-04-23_22h37.54.705,Serial_Dependence_U,2023.2.3,Win32,238.0952381,,,,,,,,,,,,1671.7165,3,1671.7168,,,,1674.0313,1674.5292,1673.5257,1674.0309,1672.7226,254,1673.5255,1674.5293,1675.0306,1675.0307,1676.3632,1130,1676.3633,5,1677.3618,3,18,180,36,1,0.8,0.3,Time
,,Chunyu,1,M,23,2025-04-23_22h37.54.705,Serial_Dependence_U,2023.2.3,Win32,238.0952381,,,,,,,,,,,,1677.363,3,1677.3633,,,,1680.4728,1680.9682,1679.9712,1680.4723,1678.3614,43,1679.9711,1680.9682,1681.4631,1681.4632,1683.1681,1404.3,1683.1683,2,1684.1631,3,19,181,8,1,1.6,0.3,Time
,,Chunyu,1,M,23,2025-04-23_22h37.54.705,Serial_Dependence_U,2023.2.3,Win32,238.0952381,,,,,,,,,,,,1684.1634,3,1684.1635,,,,1687.1889,1687.6837,1686.6825,1687.1887,1685.1662,322,1686.6823,1687.6837,1688.1859,1688.186,1689.8173,1383.3,1689.8175,2,1690.8148,3,20,182,43,1,1.5,0.3,Time
,,Chunyu,1,M,23,2025-04-23_22h37.54.705,Serial_Dependence_U,2023.2.3,Win32,238.0952381,,,,,,,,,,,,1690.816,3,1690.8163,,,,1693.2273,1693.7196,1692.7234,1693.2269,1691.8181,207,1692.7234,1693.7197,1694.224,1694.2241,1695.6478,1180.7,1695.648,5,1696.6424,3,21,183,19,1,0.9,0.3,Time
,,Chunyu,1,M,23,2025-04-23_22h37.54.705,Serial_Dependence_U,2023.2.3,Win32,238.0952381,,,,,,,,,,,,1696.6439,3,1696.6443,,,,1699.1611,1699.6569,1698.6575,1699.1605,1697.6436,293,1698.6573,1699.657,1700.1512,1700.1513,1701.6982,1263.8,1701.6985,4,1702.6975,3,22,184,20,1,1,0.3,Time
,,Chunyu,1,M,23,2025-04-23_22h37.54.705,Serial_Dependence_U,2023.2.3,Win32,238.0952381,,,,,,,,,,,,1702.6984,3,1702.6987,,,,1705.1235,1705.6314,1704.6159,1705.1231,1703.7088,248,1704.6158,1705.6315,1706.1297,1706.1298,1707.2684,1022.3,1707.2686,4,1708.2648,3,23,185,46,1,0.9,0.7,Time
,,Chunyu,1,M,23,2025-04-23_22h37.54.705,Serial_Dependence_U,2023.2.3,Win32,238.0952381,,,,,,,,,,,,1708.2656,3,1708.2657,,,,1710.6756,1711.1757,1710.1692,1710.6751,1709.2617,316,1710.1688,1711.1757,1711.6666,1711.6666,1713.3166,1379.1,1713.3171,5,1714.3123,3,24,186,1,1,0.9,0.3,Time
,,Chunyu,1,M,23,2025-04-23_22h37.54.705,Serial_Dependence_U,2023.2.3,Win32,238.0952381,,,,,,,,,,,,1714.3127,3,1714.3129,,,,1717.2266,1717.7277,1716.723,1717.2266,1715.3192,273,1716.7228,1717.7278,1718.2203,1718.2205,1719.6952,1286.8,1719.6954,2,1720.7043,3,25,187,42,1,1.4,0.3,Time
,,Chunyu,1,M,23,2025-04-23_22h37.54.705,Serial_Dependence_U,2023.2.3,Win32,238.0952381,,,,,,,,,,,,1720.7046,3,1720.7047,,,,1723.6294,1724.1272,1723.1177,1723.6291,1721.7127,193,1723.1175,1724.1272,1724.6287,1724.6287,1726.3073,1391.8,1726.3078,3,1727.3073,3,26,188,24,1,1.4,0.3,Time
,,Chunyu,1,M,23,2025-04-23_22h37.54.705,Serial_Dependence_U,2023.2.3,Win32,238.0952381,,,,,,,,,,,,1727.3078,3,1727.3079,,,,1730.1366,1730.6406,1729.6325,1730.1363,1728.326,258,1729.6321,1730.6406,1731.1316,1731.1317,1732.6971,1339.7,1732.6973,3,1733.7003,3,27,189,50,1,1.3,0.7,Time
,,Chunyu,1,M,23,2025-04-23_22h37.54.705,Serial_Dependence_U,2023.2.3,Win32,238.0952381,,,,,,,,,,,,1733.7007,3,1733.7008,,,,1736.5165,1737.0063,1736.0087,1736.5162,1734.7056,193,1736.0083,1737.0064,1737.4974,1737.4974,1738.8319,1263,1738.832,3,1739.8258,3,28,190,5,1,1.3,0.3,Time
,,Chunyu,1,M,23,2025-04-23_22h37.54.705,Serial_Dependence_U,2023.2.3,Win32,238.0952381,,,,,,,,,,,,1739.8262,3,1739.8262,,,,1742.4419,1742.9437,1741.9384,1742.4418,1740.8302,79,1741.9381,1742.9437,1743.4344,1743.4344,1745.0376,1295.4,1745.0379,4,1746.0335,3,29,191,48,1,1.1,0.7,Time
,,Chunyu,1,M,23,2025-04-23_22h37.54.705,Serial_Dependence_U,2023.2.3,Win32,238.0952381,,,,,,,,,,,,1746.0347,3,1746.0349,,,,1749.1595,1749.6576,1748.6549,1749.1592,1747.0399,1,1748.6548,1749.6577,1750.1544,1750.1544,1751.7281,1277.5,1751.7283,2,1752.7267,3,30,192,53,1,1.6,0.7,Time
,,Chunyu,1,M,23,2025-04-23_22h37.54.705,Serial_Dependence_U,2023.2.3,Win32,238.0952381,,,,,,,,,,,,1752.7276,3,1752.7279,,,,1755.4505,1755.9453,1754.9383,1755.4501,1753.7326,145,1754.9381,1755.9454,1756.4417,1756.4418,1757.8516,1187.3,1757.8518,3,1758.8491,3,31,193,22,1,1.2,0.3,Time
,,Chunyu,1,M,23,2025-04-23_22h37.54.705,Serial_Dependence_U,2023.2.3,Win32,238.0952381,,,,,,,,,,,,1758.8499,3,1758.85,,,,1761.8825,1762.3773,1761.3786,1761.8815,1759.8613,206,1761.3784,1762.3775,1762.8725,1762.8726,1764.5923,1359.7,1764.5924,2,1765.599,3,32,194,34,1,1.5,0.7,Time
,,Chunyu,1,M,23,2025-04-23_22h37.54.705,Serial_Dependence_U,2023.2.3,Win32,238.0952381,,,,,,,,,,,,1765.5999,3,1765.6002,,,,1768.0284,1768.518,1767.5159,1768.0282,1766.613,105,1767.5154,1768.5181,1769.0182,1769.0182,1770.532,1179.9,1770.5321,5,1771.5293,3,33,195,28,1,0.9,0.7,Time
,,Chunyu,1,M,23,2025-04-23_22h37.54.705,Serial_Dependence_U,2023.2.3,Win32,238.0952381,,,,,,,,,,,,1771.5296,3,1771.5298,,,,1774.6502,1775.1546,1774.1423,1774.6501,1772.5413,217,1774.1421,1775.1547,1775.6528,1775.6528,1777.2527,1409.8,1777.2529,2,1778.2529,3,34,196,26,1,1.6,0.3,Time
,,Chunyu,1,M,23,2025-04-23_22h37.54.705,Serial_Dependence_U,2023.2.3,Win32,238.0952381,,,,,,,,,,,,1778.2538,3,1778.2542,,,,1780.6763,1781.1739,1780.1748,1780.676,1779.2703,164,1780.1743,1781.1739,1781.6765,1781.6765,1783.2508,1295.1,1783.2515,5,1784.2526,3,35,197,37,1,0.9,0.3,Time
,,Chunyu,1,M,23,2025-04-23_22h37.54.705,Serial_Dependence_U,2023.2.3,Win32,238.0952381,,,,,,,,,,,,1784.2534,3,1784.2538,,,,1786.58,1787.0755,1786.0663,1786.5798,1785.2551,325,1786.0656,1787.0755,1787.579,1787.5791,1789.0286,1065.5,1789.0289,5,1790.0276,3,36,198,45,1,0.8,0.7,Time
,,Chunyu,1,M,23,2025-04-23_22h37.54.705,Serial_Dependence_U,2023.2.3,Win32,238.0952381,,,,,,,,,,,,1790.0285,3,1790.0288,,,,1792.3553,1792.8515,1791.852,1792.3552,1791.032,220,1791.8518,1792.8515,1793.3497,1793.3497,1794.3506,375.4,1794.3509,1,1795.3489,3,37,199,9,1,0.8,0.7,Time
,,Chunyu,1,M,23,2025-04-23_22h37.54.705,Serial_Dependence_U,2023.2.3,Win32,238.0952381,,,,,,,,,,,,1795.3492,3,1795.3493,,,,1797.6503,1798.1482,1797.1476,1797.6501,1796.345,183,1797.1474,1798.1483,1798.6513,1798.6513,1799.9998,1003.8,1800.0002,4,1800.9996,3,38,200,0,1,0.8,0.3,Time
,,Chunyu,1,M,23,2025-04-23_22h37.54.705,Serial_Dependence_U,2023.2.3,Win32,238.0952381,,,,,,,,,,,,1801,3,1801,,,,1803.3312,1803.8257,1802.818,1803.3312,1802.0088,11,1802.8178,1803.8257,1804.3235,1804.3236,1805.5429,941.1,1805.543,4,1806.5404,3,39,201,18,1,0.8,0.3,Time
,,Chunyu,1,M,23,2025-04-23_22h37.54.705,Serial_Dependence_U,2023.2.3,Win32,238.0952381,,,,,,,,,,,,1806.5408,3,1806.541,,,,1809.363,1809.8573,1808.8537,1809.3627,1807.5376,13,1808.8536,1809.8573,1810.3553,1810.3554,1811.7413,1090.2,1811.7415,2,1812.7385,3,40,202,23,1,1.3,0.3,Time
,,Chunyu,1,M,23,2025-04-23_22h37.54.705,Serial_Dependence_U,2023.2.3,Win32,238.0952381,,,,,,,,,,,,1812.7393,3,1812.7394,,,,1815.4452,1815.9491,1814.9438,1815.4451,1813.7386,239,1814.9434,1815.9491,1816.4454,1816.4455,1817.8045,1109.5,1817.8046,2,1818.805,3,41,203,40,1,1.2,0.3,Time
,,Chunyu,1,M,23,2025-04-23_22h37.54.705,Serial_Dependence_U,2023.2.3,Win32,238.0952381,,,,,,,,,,,,1818.8058,3,1818.806,,,,1821.7279,1822.2306,1821.2223,1821.7274,1819.8123,308,1821.2222,1822.2306,1822.7343,1822.7344,1824.195,1181.9,1824.1952,2,1825.1967,3,42,204,6,1,1.4,0.3,Time
,,Chunyu,1,M,23,2025-04-23_22h37.54.705,Serial_Dependence_U,2023.2.3,Win32,238.0952381,,,,,,,,,,,,1825.1969,3,1825.197,,,,1828.0011,1828.5066,1827.4987,1828.0007,1826.1968,171,1827.4986,1828.5066,1829.007,1829.0072,1830.4223,1193,1830.4227,2,1831.4288,3,43,205,32,1,1.3,0.7,Time
,,Chunyu,1,M,23,2025-04-23_22h37.54.705,Serial_Dependence_U,2023.2.3,Win32,238.0952381,,,,,,,,,,,,1831.4291,3,1831.4291,,,,1834.0531,1834.559,1833.5507,1834.0528,1832.4352,199,1833.5506,1834.559,1835.0585,1835.0585,1836.6765,1298.5,1836.6766,4,1837.6764,3,44,206,3,1,1.1,0.3,Time
,,Chunyu,1,M,23,2025-04-23_22h37.54.705,Serial_Dependence_U,2023.2.3,Win32,238.0952381,,,,,,,,,,,,1837.6767,3,1837.6767,,,,1840.8097,1841.3077,1840.3016,1840.8093,1838.693,248,1840.3008,1841.3077,1841.8061,1841.8062,1843.3836,1293.2,1843.3838,2,1844.3774,3,45,207,44,1,1.6,0.3,Time
,,Chunyu,1,M,23,2025-04-23_22h37.54.705,Serial_Dependence_U,2023.2.3,Win32,238.0952381,,,,,,,,,,,,1844.3776,3,1844.3778,,,,1847.2964,1847.7932,1846.7941,1847.2959,1845.3841,84,1846.794,1847.7932,1848.2784,1848.2787,1849.9415,1381.6,1849.9416,3,1850.9377,3,46,208,51,1,1.4,0.7,Time
,,Chunyu,1,M,23,2025-04-23_22h37.54.705,Serial_Dependence_U,2023.2.3,Win32,238.0952381,,,,,,,,,,,,1850.9387,3,1850.939,,,,1854.0701,1854.5664,1853.5656,1854.07,1851.9519,335,1853.5653,1854.5664,1855.0704,1855.0705,1856.5947,1235.1,1856.595,2,1857.5999,3,47,209,17,1,1.6,0.7,Time
,,Chunyu,1,M,23,2025-04-23_22h37.54.705,Serial_Dependence_U,2023.2.3,Win32,238.0952381,,,,,,,,,,,,1857.601,3,1857.6013,,,,1860.1256,1860.6216,1859.6159,1860.1252,1858.602,305,1859.6156,1860.6216,1861.1213,1861.1214,1862.5567,1260.2,1862.5569,4,1863.5487,3,48,210,38,1,1,0.3,Time
,,Chunyu,1,M,23,2025-04-23_22h37.54.705,Serial_Dependence_U,2023.2.3,Win32,238.0952381,,,,,,,,,,,,1863.5492,3,1863.5492,,,,1866.5706,1867.0718,1866.0696,1866.5702,1864.5633,196,1866.0691,1867.0718,1867.5693,1867.5695,1869.3456,1464.3,1869.3457,3,1870.3515,3,49,211,52,1,1.5,0.7,Time
,,Chunyu,1,M,23,2025-04-23_22h37.54.705,Serial_Dependence_U,2023.2.3,Win32,238.0952381,,,,,,,,,,,,1870.3518,3,1870.3519,,,,1873.4774,1873.9762,1872.9768,1873.4773,1871.363,35,1872.9766,1873.9762,1874.4713,1874.4714,1876.1969,1388.5,1876.1972,2,1877.1984,3,50,212,35,1,1.6,0.7,Time
,,Chunyu,1,M,23,2025-04-23_22h37.54.705,Serial_Dependence_U,2023.2.3,Win32,238.0952381,,,,,,,,,,,,1877.1987,3,1877.1987,,,,1880.012,1880.5028,1879.5075,1880.0116,1878.2037,184,1879.5072,1880.5028,1881.0004,1881.0005,1882.7301,1402.9,1882.7302,4,1883.7219,3,51,213,14,1,1.3,0.7,Time
,,Chunyu,1,M,23,2025-04-23_22h37.54.705,Serial_Dependence_U,2023.2.3,Win32,238.0952381,,,,,,,,,,,,1883.7221,3,1883.7222,,,,1886.4322,1886.9296,1885.931,1886.4318,1884.7264,115,1885.9308,1886.9296,1887.4254,1887.4255,1889.5205,1809.2,1889.5208,5,1890.5165,3,52,214,13,1,1.2,0.7,Time
,,Chunyu,1,M,23,2025-04-23_22h37.54.705,Serial_Dependence_U,2023.2.3,Win32,238.0952381,,,,,,,,,,,,1890.5173,3,1890.5176,,,,1893.0295,1893.5346,1892.5287,1893.0292,1891.5201,315,1892.5286,1893.5346,1894.0326,1894.0327,1895.6814,1359.1,1895.6816,5,1896.6798,3,53,215,47,1,1,0.7,Time
,,Chunyu,1,M,23,2025-04-23_22h37.54.705,Serial_Dependence_U,2023.2.3,Win32,238.0952381,,,,,,,,,,,,1896.6807,4,1902.0562,s,5.3596,,1904.4706,1904.9684,1903.9626,1904.4706,1903.0562,285,1903.9621,1904.9685,1905.4658,1905.4658,1907.11,1375,1907.1102,5,1908.1182,4,0,216,46,1,0.9,0.7,Time
,,Chunyu,1,M,23,2025-04-23_22h37.54.705,Serial_Dependence_U,2023.2.3,Win32,238.0952381,,,,,,,,,,,,1908.1191,4,1908.121,,,,1910.7563,1911.259,1910.2447,1910.7562,1909.1284,7,1910.2446,1911.2591,1911.7533,1911.7533,1913.323,1334.7,1913.3233,4,1914.3205,4,1,217,12,1,1.1,0.7,Time
,,Chunyu,1,M,23,2025-04-23_22h37.54.705,Serial_Dependence_U,2023.2.3,Win32,238.0952381,,,,,,,,,,,,1914.3214,4,1914.3217,,,,1917.4331,1917.9341,1916.9304,1917.4328,1915.3286,128,1916.9302,1917.9341,1918.4322,1918.4323,1920.0313,1349.2,1920.0314,2,1921.0331,4,2,218,17,1,1.6,0.7,Time
,,Chunyu,1,M,23,2025-04-23_22h37.54.705,Serial_Dependence_U,2023.2.3,Win32,238.0952381,,,,,,,,,,,,1921.0341,4,1921.0344,,,,1924.0705,1924.5626,1923.5557,1924.0703,1922.0519,337,1923.5552,1924.5626,1925.0661,1925.0662,1926.697,1361.9,1926.6971,2,1927.6927,4,3,219,34,1,1.5,0.7,Time
,,Chunyu,1,M,23,2025-04-23_22h37.54.705,Serial_Dependence_U,2023.2.3,Win32,238.0952381,,,,,,,,,,,,1927.6929,4,1927.693,,,,1930.1043,1930.6069,1929.5941,1930.1039,1928.6917,348,1929.5939,1930.607,1931.1073,1931.1073,1932.369,1072.5,1932.3691,4,1933.3656,4,4,220,19,1,0.9,0.3,Time
,,Chunyu,1,M,23,2025-04-23_22h37.54.705,Serial_Dependence_U,2023.2.3,Win32,238.0952381,,,,,,,,,,,,1933.3659,4,1933.3661,,,,1935.8879,1936.3859,1935.3759,1935.8877,1934.3745,158,1935.3758,1936.3859,1936.8827,1936.8829,1938.2905,1143.6,1938.2907,4,1939.2951,4,5,221,29,1,1,0.7,Time
,,Chunyu,1,M,23,2025-04-23_22h37.54.705,Serial_Dependence_U,2023.2.3,Win32,238.0952381,,,,,,,,,,,,1939.2953,4,1939.2953,,,,1941.807,1942.2994,1941.3028,1941.8067,1940.299,19,1941.3026,1942.2994,1942.802,1942.8021,1944.1491,1098.2,1944.1492,4,1945.1545,4,6,222,20,1,1,0.3,Time
,,Chunyu,1,M,23,2025-04-23_22h37.54.705,Serial_Dependence_U,2023.2.3,Win32,238.0952381,,,,,,,,,,,,1945.1547,4,1945.1548,,,,1948.2697,1948.7668,1947.7635,1948.2693,1946.1585,156,1947.7634,1948.7669,1949.2625,1949.2625,1950.8465,1383.2,1950.8467,2,1951.8462,4,7,223,8,1,1.6,0.3,Time
,,Chunyu,1,M,23,2025-04-23_22h37.54.705,Serial_Dependence_U,2023.2.3,Win32,238.0952381,,,,,,,,,,,,1951.8467,4,1951.8468,,,,1954.283,1954.7782,1953.7812,1954.2829,1952.8725,86,1953.7811,1954.7783,1955.2754,1955.2754,1956.5055,1033.5,1956.506,4,1957.5104,4,8,224,1,1,0.9,0.3,Time
,,Chunyu,1,M,23,2025-04-23_22h37.54.705,Serial_Dependence_U,2023.2.3,Win32,238.0952381,,,,,,,,,,,,1957.5113,4,1957.5116,,,,1960.4341,1960.94,1959.926,1960.4337,1958.5212,152,1959.9254,1960.94,1961.4388,1961.4388,1962.816,1074.7,1962.8162,2,1963.8109,4,9,225,33,1,1.4,0.7,Time
,,Chunyu,1,M,23,2025-04-23_22h37.54.705,Serial_Dependence_U,2023.2.3,Win32,238.0952381,,,,,,,,,,,,1963.8119,4,1963.8121,,,,1966.3344,1966.8324,1965.8334,1966.3342,1964.8291,84,1965.8332,1966.8325,1967.3233,1967.3234,1968.6625,1145.8,1968.6628,4,1969.6638,4,10,226,2,1,1,0.3,Time
,,Chunyu,1,M,23,2025-04-23_22h37.54.705,Serial_Dependence_U,2023.2.3,Win32,238.0952381,,,,,,,,,,,,1969.6641,4,1969.6642,,,,1972.5935,1973.094,1972.0921,1972.5933,1970.6823,347,1972.092,1973.0941,1973.5973,1973.5973,1975.1807,1357.5,1975.1809,3,1976.185,4,11,227,42,1,1.4,0.3,Time
,,Chunyu,1,M,23,2025-04-23_22h37.54.705,Serial_Dependence_U,2023.2.3,Win32,238.0952381,,,,,,,,,,,,1976.1852,4,1976.1852,,,,1979.106,1979.6034,1978.5996,1979.1056,1977.1971,342,1978.5992,1979.6035,1980.1014,1980.1014,1981.5515,1226.2,1981.5518,2,1982.5505,4,12,228,24,1,1.4,0.3,Time
,,Chunyu,1,M,23,2025-04-23_22h37.54.705,Serial_Dependence_U,2023.2.3,Win32,238.0952381,,,,,,,,,,,,1982.5508,4,1982.5509,,,,1984.8926,1985.3847,1984.3869,1984.8922,1983.5727,169,1984.3867,1985.3847,1985.884,1985.8841,1987.3252,1215.1,1987.3254,5,1988.3212,4,13,229,18,1,0.8,0.3,Time
,,Chunyu,1,M,23,2025-04-23_22h37.54.705,Serial_Dependence_U,2023.2.3,Win32,238.0952381,,,,,,,,,,,,1988.3216,4,1988.3217,,,,1991.1506,1991.6527,1990.6396,1991.1504,1989.3276,157,1990.6395,1991.6527,1992.1479,1992.1479,1993.5693,1253.8,1993.5696,3,1994.5657,4,14,230,23,1,1.3,0.3,Time
,,Chunyu,1,M,23,2025-04-23_22h37.54.705,Serial_Dependence_U,2023.2.3,Win32,238.0952381,,,,,,,,,,,,1994.566,4,1994.5661,,,,1997.3865,1997.8927,1996.8814,1997.3859,1995.5668,147,1996.8811,1997.8927,1998.3901,1998.3902,1999.7828,1227,1999.783,2,2000.7768,4,15,231,14,1,1.3,0.7,Time
,,Chunyu,1,M,23,2025-04-23_22h37.54.705,Serial_Dependence_U,2023.2.3,Win32,238.0952381,,,,,,,,,,,,2000.7777,4,2000.7779,,,,2003.8965,2004.4025,2003.394,2003.8963,2001.7847,244,2003.394,2004.4026,2004.9027,2004.9028,2006.6379,1425,2006.6383,2,2007.6318,4,16,232,35,1,1.6,0.7,Time
,,Chunyu,1,M,23,2025-04-23_22h37.54.705,Serial_Dependence_U,2023.2.3,Win32,238.0952381,,,,,,,,,,,,2007.6328,4,2007.6331,,,,2010.3692,2010.8697,2009.865,2010.369,2008.6619,160,2009.8645,2010.8697,2011.3636,2011.3637,2013.0633,1398,2013.064,4,2014.0631,4,17,233,40,1,1.2,0.3,Time
,,Chunyu,1,M,23,2025-04-23_22h37.54.705,Serial_Dependence_U,2023.2.3,Win32,238.0952381,,,,,,,,,,,,2014.0641,4,2014.0643,,,,2016.4811,2016.9829,2015.9758,2016.4809,2015.0701,219,2015.9752,2016.983,2017.482,2017.482,2018.7833,1052.2,2018.7835,4,2019.7883,4,18,234,28,1,0.9,0.7,Time
,,Chunyu,1,M,23,2025-04-23_22h37.54.705,Serial_Dependence_U,2023.2.3,Win32,238.0952381,,,,,,,,,,,,2019.7887,4,2019.7889,,,,2022.4091,2022.9126,2021.8996,2022.4086,2020.7971,32,2021.8994,2022.9127,2023.4075,2023.4076,2024.8835,1278.5,2024.8837,4,2025.8826,4,19,235,48,1,1.1,0.7,Time
,,Chunyu,1,M,23,2025-04-23_22h37.54.705,Serial_Dependence_U,2023.2.3,Win32,238.0952381,,,,,,,,,,,,2025.8834,4,2025.8836,,,,2028.7123,2029.2147,2028.2092,2028.7122,2026.896,326,2028.209,2029.2148,2029.7121,2029.7121,2031.2324,1322.8,2031.2329,3,2032.2305,4,20,236,32,1,1.3,0.7,Time
,,Chunyu,1,M,23,2025-04-23_22h37.54.705,Serial_Dependence_U,2023.2.3,Win32,238.0952381,,,,,,,,,,,,2032.2318,4,2032.232,,,,2035.1331,2035.6273,2034.6309,2035.1326,2033.2302,2,2034.6307,2035.6274,2036.1224,2036.1228,2037.9671,1514.9,2037.9673,4,2038.9605,4,21,237,6,1,1.4,0.3,Time
,,Chunyu,1,M,23,2025-04-23_22h37.54.705,Serial_Dependence_U,2023.2.3,Win32,238.0952381,,,,,,,,,,,,2038.9614,4,2038.9616,,,,2041.2738,2041.7773,2040.7625,2041.2736,2039.9618,298,2040.7624,2041.7774,2042.2739,2042.2741,2043.4554,1046,2043.4556,5,2044.4536,4,22,238,9,1,0.8,0.7,Time
,,Chunyu,1,M,23,2025-04-23_22h37.54.705,Serial_Dependence_U,2023.2.3,Win32,238.0952381,,,,,,,,,,,,2044.4538,4,2044.4539,,,,2047.4577,2047.9534,2046.9509,2047.4576,2045.4444,179,2046.9508,2047.9534,2048.4513,2048.4513,2049.9106,1195.5,2049.9109,2,2050.9018,4,23,239,7,1,1.5,0.3,Time
,,Chunyu,1,M,23,2025-04-23_22h37.54.705,Serial_Dependence_U,2023.2.3,Win32,238.0952381,,,,,,,,,,,,2050.9022,4,2050.9023,,,,2053.6121,2054.1065,2053.1039,2053.612,2051.9011,227,2053.1038,2054.1066,2054.6066,2054.6067,2056.0461,1128.6,2056.0465,2,2057.0525,4,24,240,4,1,1.2,0.3,Time
,,Chunyu,1,M,23,2025-04-23_22h37.54.705,Serial_Dependence_U,2023.2.3,Win32,238.0952381,,,,,,,,,,,,2057.0529,4,2057.0531,,,,2059.7784,2060.2736,2059.2661,2059.7783,2058.0653,345,2059.2659,2060.2737,2060.7655,2060.7656,2062.4581,1483.5,2062.4583,4,2063.4583,4,25,241,49,1,1.2,0.7,Time
,,Chunyu,1,M,23,2025-04-23_22h37.54.705,Serial_Dependence_U,2023.2.3,Win32,238.0952381,,,,,,,,,,,,2063.4587,4,2063.4588,,,,2066.4834,2066.9846,2065.975,2066.483,2064.4664,24,2065.9746,2066.9846,2067.4835,2067.4835,2069.1007,1391.2,2069.1009,2,2070.0993,4,26,242,52,1,1.5,0.7,Time
,,Chunyu,1,M,23,2025-04-23_22h37.54.705,Serial_Dependence_U,2023.2.3,Win32,238.0952381,,,,,,,,,,,,2070.0995,4,2070.0995,,,,2072.424,2072.9152,2071.9141,2072.4239,2071.0996,212,2071.9138,2072.9153,2073.4145,2073.4145,2074.7256,1164.8,2074.7259,5,2075.7215,4,27,243,45,1,0.8,0.7,Time
,,Chunyu,1,M,23,2025-04-23_22h37.54.705,Serial_Dependence_U,2023.2.3,Win32,238.0952381,,,,,,,,,,,,2075.7218,4,2075.7219,,,,2078.0304,2078.5335,2077.5206,2078.0298,2076.7193,337,2077.5202,2078.5336,2079.0306,2079.0308,2080.4019,1150.2,2080.4021,5,2081.3993,4,28,244,27,1,0.8,0.7,Time
,,Chunyu,1,M,23,2025-04-23_22h37.54.705,Serial_Dependence_U,2023.2.3,Win32,238.0952381,,,,,,,,,,,,2081.4001,4,2081.4006,,,,2084.2301,2084.726,2083.7104,2084.2248,2082.4015,272,2083.7102,2084.7261,2085.2234,2085.2235,2086.8123,1308.7,2086.8126,3,2087.8133,4,29,245,5,1,1.3,0.3,Time
,,Chunyu,1,M,23,2025-04-23_22h37.54.705,Serial_Dependence_U,2023.2.3,Win32,238.0952381,,,,,,,,,,,,2087.8142,4,2087.8144,,,,2090.9513,2091.4499,2090.4373,2090.9511,2088.8306,181,2090.437,2091.4499,2091.9565,2091.9566,2093.4587,1285.2,2093.459,2,2094.458,4,30,246,26,1,1.6,0.3,Time
,,Chunyu,1,M,23,2025-04-23_22h37.54.705,Serial_Dependence_U,2023.2.3,Win32,238.0952381,,,,,,,,,,,,2094.4582,4,2094.4584,,,,2097.2687,2097.7699,2096.7627,2097.2686,2095.4601,33,2096.7623,2097.7699,2098.2659,2098.2659,2099.971,1470.1,2099.9714,4,2100.9625,4,31,247,41,1,1.3,0.3,Time
,,Chunyu,1,M,23,2025-04-23_22h37.54.705,Serial_Dependence_U,2023.2.3,Win32,238.0952381,,,,,,,,,,,,2100.9627,4,2100.9628,,,,2103.9853,2104.4788,2103.4822,2103.9851,2101.9735,91,2103.4819,2104.4788,2104.9775,2104.9776,2106.8376,1549.4,2106.8377,3,2107.834,4,32,248,25,1,1.5,0.3,Time
,,Chunyu,1,M,23,2025-04-23_22h37.54.705,Serial_Dependence_U,2023.2.3,Win32,238.0952381,,,,,,,,,,,,2107.8351,4,2107.8353,,,,2110.941,2111.4438,2110.4343,2110.941,2108.8322,74,2110.4341,2111.4439,2111.9372,2111.9372,2113.4429,1285,2113.4434,2,2114.4435,4,33,249,44,1,1.6,0.3,Time
,,Chunyu,1,M,23,2025-04-23_22h37.54.705,Serial_Dependence_U,2023.2.3,Win32,238.0952381,,,,,,,,,,,,2114.4439,4,2114.444,,,,2117.06,2117.5595,2116.5583,2117.0599,2115.4462,88,2116.5581,2117.5596,2118.0645,2118.0645,2119.7446,1472.7,2119.7449,5,2120.7402,4,34,250,21,1,1.1,0.3,Time
,,Chunyu,1,M,23,2025-04-23_22h37.54.705,Serial_Dependence_U,2023.2.3,Win32,238.0952381,,,,,,,,,,,,2120.7404,4,2120.7405,,,,2123.553,2124.0519,2123.051,2123.5524,2121.7399,127,2123.0505,2124.0519,2124.5452,2124.5453,2126.1624,1352.2,2126.1626,3,2127.1576,4,35,251,50,1,1.3,0.7,Time
,,Chunyu,1,M,23,2025-04-23_22h37.54.705,Serial_Dependence_U,2023.2.3,Win32,238.0952381,,,,,,,,,,,,2127.1586,4,2127.1588,,,,2129.6871,2130.1843,2129.1717,2129.6871,2128.163,193,2129.1713,2130.1843,2130.6871,2130.6872,2132.0166,1052,2132.0168,4,2133.011,4,36,252,38,1,1,0.3,Time
,,Chunyu,1,M,23,2025-04-23_22h37.54.705,Serial_Dependence_U,2023.2.3,Win32,238.0952381,,,,,,,,,,,,2133.0112,4,2133.0112,,,,2135.4348,2135.9353,2134.9263,2135.4347,2134.0231,272,2134.9261,2135.9353,2136.4271,2136.4272,2137.9912,1392.1,2137.9915,5,2138.9902,4,37,253,37,1,0.9,0.3,Time
,,Chunyu,1,M,23,2025-04-23_22h37.54.705,Serial_Dependence_U,2023.2.3,Win32,238.0952381,,,,,,,,,,,,2138.9909,4,2138.991,,,,2141.3153,2141.8076,2140.806,2141.3149,2139.9918,354,2140.8058,2141.8076,2142.3047,2142.3049,2143.6374,1131.5,2143.6375,5,2144.6307,4,38,254,0,1,0.8,0.3,Time
,,Chunyu,1,M,23,2025-04-23_22h37.54.705,Serial_Dependence_U,2023.2.3,Win32,238.0952381,,,,,,,,,,,,2144.6315,4,2144.6318,,,,2147.5571,2148.0545,2147.052,2147.5571,2145.643,358,2147.0516,2148.0545,2148.552,2148.5521,2150.1007,1294.6,2150.1009,2,2151.0975,4,39,255,15,1,1.4,0.7,Time
,,Chunyu,1,M,23,2025-04-23_22h37.54.705,Serial_Dependence_U,2023.2.3,Win32,238.0952381,,,,,,,,,,,,2151.0979,4,2151.098,,,,2153.7166,2154.2213,2153.206,2153.7165,2152.0975,182,2153.2056,2154.2214,2154.717,2154.717,2156.0208,1210.6,2156.021,4,2157.0123,4,40,256,30,1,1.1,0.7,Time
,,Chunyu,1,M,23,2025-04-23_22h37.54.705,Serial_Dependence_U,2023.2.3,Win32,238.0952381,,,,,,,,,,,,2157.0127,4,2157.0128,,,,2159.5341,2160.0331,2159.0267,2159.5334,2158.0217,109,2159.0264,2160.0332,2160.5247,2160.5248,2162.6264,1067.7,2162.6269,4,2163.6247,4,41,257,47,1,1,0.7,Time
,,Chunyu,1,M,23,2025-04-23_22h37.54.705,Serial_Dependence_U,2023.2.3,Win32,238.0952381,,,,,,,,,,,,2163.6258,4,2163.626,,,,2166.1507,2166.6452,2165.6373,2166.1505,2164.6289,187,2165.6368,2166.6452,2167.1441,2167.1442,2169.1897,1440.4,2169.1897,5,2170.1863,4,42,258,11,1,1,0.7,Time
,,Chunyu,1,M,23,2025-04-23_22h37.54.705,Serial_Dependence_U,2023.2.3,Win32,238.0952381,,,,,,,,,,,,2170.1866,4,2170.1867,,,,2172.8161,2173.3148,2172.3047,2172.8158,2171.191,329,2172.3043,2173.3148,2173.8113,2173.8114,2175.4097,1230.7,2175.4103,4,2176.4054,4,43,259,39,1,1.1,0.3,Time
,,Chunyu,1,M,23,2025-04-23_22h37.54.705,Serial_Dependence_U,2023.2.3,Win32,238.0952381,,,,,,,,,,,,2176.4065,4,2176.4067,,,,2179.011,2179.5066,2178.5078,2179.0109,2177.4036,169,2178.5074,2179.5067,2180.0017,2180.0018,2181.6662,1488.8,2181.6663,5,2182.673,4,44,260,3,1,1.1,0.3,Time
,,Chunyu,1,M,23,2025-04-23_22h37.54.705,Serial_Dependence_U,2023.2.3,Win32,238.0952381,,,,,,,,,,,,2182.6732,4,2182.6733,,,,2185.803,2186.2979,2185.2932,2185.8025,2183.6846,116,2185.2928,2186.298,2186.7916,2186.7918,2188.6397,1438,2188.6398,2,2189.6352,4,45,261,53,1,1.6,0.7,Time
,,Chunyu,1,M,23,2025-04-23_22h37.54.705,Serial_Dependence_U,2023.2.3,Win32,238.0952381,,,,,,,,,,,,2189.6354,4,2189.6354,,,,2192.5438,2193.0446,2192.04,2192.5436,2190.6362,355,2192.0396,2193.0448,2193.5397,2193.5397,2195.449,1604.5,2195.4492,4,2196.4581,4,46,262,51,1,1.4,0.7,Time
,,Chunyu,1,M,23,2025-04-23_22h37.54.705,Serial_Dependence_U,2023.2.3,Win32,238.0952381,,,,,,,,,,,,2196.4585,4,2196.4585,,,,2199.4814,2199.9792,2198.9621,2199.4811,2197.4581,202,2198.9616,2199.9793,2200.4738,2200.4738,2202.0044,1214.3,2202.0046,2,2203.0038,4,47,263,43,1,1.5,0.3,Time
,,Chunyu,1,M,23,2025-04-23_22h37.54.705,Serial_Dependence_U,2023.2.3,Win32,238.0952381,,,,,,,,,,,,2203.0042,4,2203.0044,,,,2206.0218,2206.5226,2205.5188,2206.0213,2204.0063,79,2205.5187,2206.5227,2207.0185,2207.0186,2208.9142,1525.1,2208.9143,3,2209.9136,4,48,264,16,1,1.5,0.7,Time
,,Chunyu,1,M,23,2025-04-23_22h37.54.705,Serial_Dependence_U,2023.2.3,Win32,238.0952381,,,,,,,,,,,,2209.9138,4,2209.9139,,,,2212.3374,2212.8343,2211.823,2212.3373,2210.92,214,2211.8226,2212.8343,2213.3382,2213.3382,2214.801,1186.6,2214.8011,5,2215.7937,4,49,265,10,1,0.9,0.7,Time
,,Chunyu,1,M,23,2025-04-23_22h37.54.705,Serial_Dependence_U,2023.2.3,Win32,238.0952381,,,,,,,,,,,,2215.7944,4,2215.7946,,,,2218.5141,2219.013,2218.0111,2218.5141,2216.8021,218,2218.011,2219.013,2219.5094,2219.5094,2221.2837,1548.6,2221.2838,4,2222.2761,4,50,266,31,1,1.2,0.7,Time
,,Chunyu,1,M,23,2025-04-23_22h37.54.705,Serial_Dependence_U,2023.2.3,Win32,238.0952381,,,,,,,,,,,,2222.277,4,2222.2771,,,,2224.9849,2225.4861,2224.4806,2224.9845,2223.2795,130,2224.4803,2225.4862,2225.9873,2225.9875,2227.666,1539.7,2227.6661,4,2228.6582,4,51,267,13,1,1.2,0.7,Time
,,Chunyu,1,M,23,2025-04-23_22h37.54.705,Serial_Dependence_U,2023.2.3,Win32,238.0952381,,,,,,,,,,,,2228.6585,4,2228.6586,,,,2231.3889,2231.8829,2230.8785,2231.3886,2229.6705,152,2230.8784,2231.8829,2232.3805,2232.3806,2234.2362,1434,2234.2364,4,2235.2362,4,52,268,22,1,1.2,0.3,Time
,,Chunyu,1,M,23,2025-04-23_22h37.54.705,Serial_Dependence_U,2023.2.3,Win32,238.0952381,,,,,,,,,,,,2235.237,4,2235.2372,,,,2237.5536,2238.0552,2237.0459,2237.5531,2236.2369,20,2237.0454,2238.0552,2238.5561,2238.5561,2239.812,867.5,2239.8121,4,2240.8125,4,53,269,36,1,0.8,0.3,Time
,,Chunyu,1,M,23,2025-04-23_22h37.54.705,Serial_Dependence_U,2023.2.3,Win32,238.0952381,,,,,,,,,,,,2240.8138,5,2244.7353,s,3.9046,,2247.2508,2247.7484,2246.7443,2247.2507,2245.7407,300,2246.7441,2247.7484,2248.2498,2248.2498,2249.7984,1241.3,2249.7986,4,2250.802,5,0,270,2,1,1,0.3,Time
,,Chunyu,1,M,23,2025-04-23_22h37.54.705,Serial_Dependence_U,2023.2.3,Win32,238.0952381,,,,,,,,,,,,2250.8029,5,2250.8049,,,,2253.5178,2254.0182,2253.0151,2253.5175,2251.8065,181,2253.0148,2254.0183,2254.5064,2254.5065,2255.9718,1291.3,2255.972,4,2256.966,5,1,271,22,1,1.2,0.3,Time
,,Chunyu,1,M,23,2025-04-23_22h37.54.705,Serial_Dependence_U,2023.2.3,Win32,238.0952381,,,,,,,,,,,,2256.9672,5,2256.9675,,,,2259.9822,2260.4869,2259.476,2259.9818,2257.9633,86,2259.4757,2260.4869,2260.9824,2260.9824,2262.6595,1407.7,2262.6599,2,2263.654,5,2,272,16,1,1.5,0.7,Time
,,Chunyu,1,M,23,2025-04-23_22h37.54.705,Serial_Dependence_U,2023.2.3,Win32,238.0952381,,,,,,,,,,,,2263.6549,5,2263.655,,,,2266.1702,2266.6691,2265.6675,2266.1697,2264.6633,77,2265.6671,2266.6691,2267.1702,2267.1703,2268.7552,1347.1,2268.7554,5,2269.7532,5,3,273,11,1,1,0.7,Time
,,Chunyu,1,M,23,2025-04-23_22h37.54.705,Serial_Dependence_U,2023.2.3,Win32,238.0952381,,,,,,,,,,,,2269.754,5,2269.7542,,,,2272.2775,2272.7744,2271.7641,2272.2774,2270.7561,355,2271.764,2272.7744,2273.2705,2273.2706,2274.7568,1249.9,2274.757,4,2275.756,5,4,274,47,1,1,0.7,Time
,,Chunyu,1,M,23,2025-04-23_22h37.54.705,Serial_Dependence_U,2023.2.3,Win32,238.0952381,,,,,,,,,,,,2275.7569,5,2275.7571,,,,2278.8777,2279.3684,2278.3667,2278.8775,2276.7569,309,2278.3665,2279.3685,2279.8648,2279.8648,2281.5654,1427.7,2281.5658,2,2282.5598,5,5,275,35,1,1.6,0.7,Time
,,Chunyu,1,M,23,2025-04-23_22h37.54.705,Serial_Dependence_U,2023.2.3,Win32,238.0952381,,,,,,,,,,,,2282.5603,5,2282.5603,,,,2285.0727,2285.5712,2284.5688,2285.0726,2283.5585,278,2284.5687,2285.5712,2286.0692,2286.0692,2287.6843,1378.2,2287.6845,5,2288.6903,5,6,276,38,1,1,0.3,Time
,,Chunyu,1,M,23,2025-04-23_22h37.54.705,Serial_Dependence_U,2023.2.3,Win32,238.0952381,,,,,,,,,,,,2288.6906,5,2288.6906,,,,2291.1093,2291.6074,2290.6056,2291.1091,2289.7012,296,2290.6056,2291.6075,2292.109,2292.1092,2293.2848,994.1,2293.2851,4,2294.2842,5,7,277,19,1,0.9,0.3,Time
,,Chunyu,1,M,23,2025-04-23_22h37.54.705,Serial_Dependence_U,2023.2.3,Win32,238.0952381,,,,,,,,,,,,2294.2849,5,2294.2852,,,,2297.0992,2297.5988,2296.5923,2297.0991,2295.2848,89,2296.5918,2297.5989,2298.1041,2298.1041,2299.8737,1399.6,2299.8738,4,2300.875,5,8,278,41,1,1.3,0.3,Time
,,Chunyu,1,M,23,2025-04-23_22h37.54.705,Serial_Dependence_U,2023.2.3,Win32,238.0952381,,,,,,,,,,,,2300.8754,5,2300.8756,,,,2303.6914,2304.1851,2303.1845,2303.6909,2301.8784,180,2303.1841,2304.1851,2304.6776,2304.6778,2306.3552,1419.6,2306.3554,4,2307.3597,5,9,279,32,1,1.3,0.7,Time
,,Chunyu,1,M,23,2025-04-23_22h37.54.705,Serial_Dependence_U,2023.2.3,Win32,238.0952381,,,,,,,,,,,,2307.3602,5,2307.3604,,,,2309.9776,2310.477,2309.4743,2309.9771,2308.3684,189,2309.4738,2310.4772,2310.9767,2310.9767,2312.6257,1517.1,2312.6264,5,2313.6241,5,10,280,48,1,1.1,0.7,Time
,,Chunyu,1,M,23,2025-04-23_22h37.54.705,Serial_Dependence_U,2023.2.3,Win32,238.0952381,,,,,,,,,,,,2313.6244,5,2313.6245,,,,2316.5527,2317.0475,2316.0481,2316.5525,2314.6423,246,2316.0476,2317.0476,2317.5466,2317.5467,2319.0549,1249.2,2319.0552,2,2320.0557,5,11,281,51,1,1.4,0.7,Time
,,Chunyu,1,M,23,2025-04-23_22h37.54.705,Serial_Dependence_U,2023.2.3,Win32,238.0952381,,,,,,,,,,,,2320.0559,5,2320.056,,,,2323.0728,2323.5829,2322.5675,2323.0725,2321.0601,229,2322.5651,2323.5829,2324.0815,2324.0815,2325.7615,1389.6,2325.7622,2,2326.767,5,12,282,43,1,1.5,0.3,Time
,,Chunyu,1,M,23,2025-04-23_22h37.54.705,Serial_Dependence_U,2023.2.3,Win32,238.0952381,,,,,,,,,,,,2326.7674,5,2326.7675,,,,2329.2003,2329.6997,2328.6785,2329.1998,2327.7732,62,2328.678,2329.6998,2330.1957,2330.1959,2331.5848,1176.2,2331.585,5,2332.585,5,13,283,28,1,0.9,0.7,Time
,,Chunyu,1,M,23,2025-04-23_22h37.54.705,Serial_Dependence_U,2023.2.3,Win32,238.0952381,,,,,,,,,,,,2332.586,5,2332.5862,,,,2335.5133,2336.0104,2335.0015,2335.5129,2333.5905,141,2335.0013,2336.0105,2336.5075,2336.5076,2337.932,1165.6,2337.9321,2,2338.9354,5,14,284,42,1,1.4,0.3,Time
,,Chunyu,1,M,23,2025-04-23_22h37.54.705,Serial_Dependence_U,2023.2.3,Win32,238.0952381,,,,,,,,,,,,2338.9364,5,2338.9367,,,,2341.6736,2342.1735,2341.1627,2341.6732,2339.9552,275,2341.1624,2342.1736,2342.6736,2342.6737,2344.0519,1084.7,2344.0521,2,2345.0491,5,15,285,40,1,1.2,0.3,Time
,,Chunyu,1,M,23,2025-04-23_22h37.54.705,Serial_Dependence_U,2023.2.3,Win32,238.0952381,,,,,,,,,,,,2345.0502,5,2345.0505,,,,2348.1593,2348.6544,2347.6533,2348.1588,2346.0483,149,2347.6529,2348.6545,2349.1463,2349.1465,2351.1409,1714.3,2351.141,4,2352.138,5,16,286,53,1,1.6,0.7,Time
,,Chunyu,1,M,23,2025-04-23_22h37.54.705,Serial_Dependence_U,2023.2.3,Win32,238.0952381,,,,,,,,,,,,2352.1383,5,2352.1384,,,,2354.9525,2355.4439,2354.4497,2354.9522,2353.1438,95,2354.4491,2355.4439,2355.9373,2355.9374,2357.7085,1501,2357.709,4,2358.7088,5,17,287,23,1,1.3,0.3,Time
,,Chunyu,1,M,23,2025-04-23_22h37.54.705,Serial_Dependence_U,2023.2.3,Win32,238.0952381,,,,,,,,,,,,2358.7093,5,2358.7095,,,,2361.1189,2361.623,2360.6143,2361.1185,2359.7108,29,2360.6138,2361.623,2362.1264,2362.1264,2363.8583,1456.1,2363.8588,5,2364.8564,5,18,288,1,1,0.9,0.3,Time
,,Chunyu,1,M,23,2025-04-23_22h37.54.705,Serial_Dependence_U,2023.2.3,Win32,238.0952381,,,,,,,,,,,,2364.8568,5,2364.8569,,,,2367.9667,2368.4606,2367.4577,2367.9666,2365.8537,169,2367.4571,2368.4606,2368.9581,2368.9581,2370.6404,1380.7,2370.6407,2,2371.6384,5,19,289,8,1,1.6,0.3,Time
,,Chunyu,1,M,23,2025-04-23_22h37.54.705,Serial_Dependence_U,2023.2.3,Win32,238.0952381,,,,,,,,,,,,2371.6393,5,2371.6396,,,,2374.4562,2374.956,2373.9487,2374.4559,2372.6453,237,2373.9486,2374.956,2375.4516,2375.4518,2377.2375,1282.7,2377.2376,3,2378.2321,5,20,290,5,1,1.3,0.3,Time
,,Chunyu,1,M,23,2025-04-23_22h37.54.705,Serial_Dependence_U,2023.2.3,Win32,238.0952381,,,,,,,,,,,,2378.2323,5,2378.2323,,,,2380.8559,2381.3566,2380.351,2380.8553,2379.2376,271,2380.3508,2381.3566,2381.8467,2381.8469,2383.472,1245.3,2383.4722,4,2384.4661,5,21,291,39,1,1.1,0.3,Time
,,Chunyu,1,M,23,2025-04-23_22h37.54.705,Serial_Dependence_U,2023.2.3,Win32,238.0952381,,,,,,,,,,,,2384.4665,5,2384.4666,,,,2386.7938,2387.2882,2386.2811,2386.7936,2385.4719,329,2386.2806,2387.2882,2387.7927,2387.7927,2389.0594,1036,2389.0599,4,2390.0625,5,22,292,27,1,0.8,0.7,Time
,,Chunyu,1,M,23,2025-04-23_22h37.54.705,Serial_Dependence_U,2023.2.3,Win32,238.0952381,,,,,,,,,,,,2390.0629,5,2390.063,,,,2392.8874,2393.3885,2392.3814,2392.8868,2391.0778,150,2392.3812,2393.3886,2393.8724,2393.8725,2395.2146,1051.3,2395.2147,2,2396.2158,5,23,293,50,1,1.3,0.7,Time
,,Chunyu,1,M,23,2025-04-23_22h37.54.705,Serial_Dependence_U,2023.2.3,Win32,238.0952381,,,,,,,,,,,,2396.2167,5,2396.2171,,,,2399.3365,2399.8447,2398.8282,2399.3364,2397.2216,263,2398.8279,2399.8447,2400.3421,2400.3421,2402.2696,1543.2,2402.2697,3,2403.2619,5,24,294,44,1,1.6,0.3,Time
,,Chunyu,1,M,23,2025-04-23_22h37.54.705,Serial_Dependence_U,2023.2.3,Win32,238.0952381,,,,,,,,,,,,2403.2627,5,2403.2629,,,,2406.1801,2406.6743,2405.6723,2406.18,2404.267,78,2405.6721,2406.6743,2407.1728,2407.1729,2408.9002,1396.1,2408.9004,3,2409.899,5,25,295,6,1,1.4,0.3,Time
,,Chunyu,1,M,23,2025-04-23_22h37.54.705,Serial_Dependence_U,2023.2.3,Win32,238.0952381,,,,,,,,,,,,2409.9001,5,2409.9003,,,,2412.2066,2412.7117,2411.7032,2412.2065,2410.8987,5,2411.7031,2412.7118,2413.2139,2413.2141,2414.829,1321.7,2414.8291,5,2415.8241,5,26,296,45,1,0.8,0.7,Time
,,Chunyu,1,M,23,2025-04-23_22h37.54.705,Serial_Dependence_U,2023.2.3,Win32,238.0952381,,,,,,,,,,,,2415.8246,5,2415.8247,,,,2418.8481,2419.3511,2418.3408,2418.8477,2416.8355,237,2418.3402,2419.3513,2419.8474,2419.8475,2421.5084,1353.2,2421.5086,2,2422.5007,5,27,297,25,1,1.5,0.3,Time
,,Chunyu,1,M,23,2025-04-23_22h37.54.705,Serial_Dependence_U,2023.2.3,Win32,238.0952381,,,,,,,,,,,,2422.5016,5,2422.5017,,,,2424.8162,2425.3122,2424.3088,2424.8156,2423.5047,245,2424.3084,2425.3123,2425.8064,2425.8065,2427.2526,1154.4,2427.2529,5,2428.2497,5,28,298,18,1,0.8,0.3,Time
,,Chunyu,1,M,23,2025-04-23_22h37.54.705,Serial_Dependence_U,2023.2.3,Win32,238.0952381,,,,,,,,,,,,2428.2506,5,2428.2508,,,,2431.0634,2431.5657,2430.5592,2431.063,2429.2494,326,2430.5588,2431.5657,2432.0701,2432.0701,2433.8087,1291.6,2433.8089,3,2434.8082,5,29,299,14,1,1.3,0.7,Time
,,Chunyu,1,M,23,2025-04-23_22h37.54.705,Serial_Dependence_U,2023.2.3,Win32,238.0952381,,,,,,,,,,,,2434.8092,5,2434.8094,,,,2437.7235,2438.2257,2437.2199,2437.723,2435.8162,154,2437.2198,2438.2257,2438.7232,2438.7232,2440.3869,1453.3,2440.3874,3,2441.3837,5,30,300,33,1,1.4,0.7,Time
,,Chunyu,1,M,23,2025-04-23_22h37.54.705,Serial_Dependence_U,2023.2.3,Win32,238.0952381,,,,,,,,,,,,2441.3842,5,2441.3845,,,,2443.6953,2444.1903,2443.1879,2443.6949,2442.3866,319,2443.1875,2444.1903,2444.6857,2444.6858,2446.2574,1314.8,2446.2577,5,2447.2628,5,31,301,9,1,0.8,0.7,Time
,,Chunyu,1,M,23,2025-04-23_22h37.54.705,Serial_Dependence_U,2023.2.3,Win32,238.0952381,,,,,,,,,,,,2447.2631,5,2447.2633,,,,2449.8698,2450.3666,2449.366,2449.8694,2448.2624,161,2449.3656,2450.3667,2450.8695,2450.8695,2452.4627,1287.6,2452.463,4,2453.463,5,32,302,30,1,1.1,0.7,Time
,,Chunyu,1,M,23,2025-04-23_22h37.54.705,Serial_Dependence_U,2023.2.3,Win32,238.0952381,,,,,,,,,,,,2453.4642,5,2453.4645,,,,2456.5847,2457.0872,2456.0814,2456.5843,2454.469,24,2456.0813,2457.0872,2457.5807,2457.5807,2459.3344,1415,2459.3346,2,2460.3377,5,33,303,17,1,1.6,0.7,Time
,,Chunyu,1,M,23,2025-04-23_22h37.54.705,Serial_Dependence_U,2023.2.3,Win32,238.0952381,,,,,,,,,,,,2460.3385,5,2460.3388,,,,2462.9447,2463.4417,2462.4399,2462.9442,2461.3333,359,2462.4394,2463.4417,2463.9342,2463.9342,2465.4902,1305.8,2465.4904,4,2466.487,5,34,304,3,1,1.1,0.3,Time
,,Chunyu,1,M,23,2025-04-23_22h37.54.705,Serial_Dependence_U,2023.2.3,Win32,238.0952381,,,,,,,,,,,,2466.488,5,2466.4882,,,,2469.113,2469.6075,2468.6022,2469.1128,2467.491,172,2468.6021,2469.6076,2470.1027,2470.1028,2471.546,1127.4,2471.5462,3,2472.5377,5,35,305,21,1,1.1,0.3,Time
,,Chunyu,1,M,23,2025-04-23_22h37.54.705,Serial_Dependence_U,2023.2.3,Win32,238.0952381,,,,,,,,,,,,2472.5385,5,2472.5387,,,,2475.2658,2475.7627,2474.7584,2475.2655,2473.5466,51,2474.7578,2475.7627,2476.2645,2476.2645,2477.7675,1285.7,2477.7678,4,2478.7672,5,36,306,49,1,1.2,0.7,Time
,,Chunyu,1,M,23,2025-04-23_22h37.54.705,Serial_Dependence_U,2023.2.3,Win32,238.0952381,,,,,,,,,,,,2478.7674,5,2478.7675,,,,2481.081,2481.5749,2480.5728,2481.0809,2479.7662,164,2480.5725,2481.5749,2482.0729,2482.0729,2483.4145,1042.3,2483.4153,5,2484.4107,5,37,307,0,1,0.8,0.3,Time
,,Chunyu,1,M,23,2025-04-23_22h37.54.705,Serial_Dependence_U,2023.2.3,Win32,238.0952381,,,,,,,,,,,,2484.4116,5,2484.4118,,,,2486.9309,2487.427,2486.4269,2486.9306,2485.4229,34,2486.4265,2487.4271,2487.9237,2487.9237,2489.469,1337.1,2489.4692,5,2490.4658,5,38,308,29,1,1,0.7,Time
,,Chunyu,1,M,23,2025-04-23_22h37.54.705,Serial_Dependence_U,2023.2.3,Win32,238.0952381,,,,,,,,,,,,2490.4665,5,2490.4667,,,,2492.8801,2493.3878,2492.3757,2492.8799,2491.4641,239,2492.3756,2493.3879,2493.8821,2493.8822,2495.1206,1089.8,2495.1207,4,2496.1133,5,39,309,10,1,0.9,0.7,Time
,,Chunyu,1,M,23,2025-04-23_22h37.54.705,Serial_Dependence_U,2023.2.3,Win32,238.0952381,,,,,,,,,,,,2496.1144,5,2496.1147,,,,2498.4498,2498.9502,2497.9381,2498.4498,2497.1239,296,2497.9377,2498.9503,2499.4534,2499.4535,2500.7533,1112.6,2500.7535,5,2501.7457,5,40,310,36,1,0.8,0.3,Time
,,Chunyu,1,M,23,2025-04-23_22h37.54.705,Serial_Dependence_U,2023.2.3,Win32,238.0952381,,,,,,,,,,,,2501.7465,5,2501.7468,,,,2504.2735,2504.7785,2503.7664,2504.2732,2502.7621,172,2503.7661,2504.7785,2505.2782,2505.2784,2506.6568,1102.6,2506.657,4,2507.6603,5,41,311,20,1,1,0.3,Time
,,Chunyu,1,M,23,2025-04-23_22h37.54.705,Serial_Dependence_U,2023.2.3,Win32,238.0952381,,,,,,,,,,,,2507.6607,5,2507.6608,,,,2510.6909,2511.1898,2510.1794,2510.6907,2508.6737,120,2510.1791,2511.1899,2511.6898,2511.6898,2513.2566,1336.3,2513.2567,2,2514.2561,5,42,312,52,1,1.5,0.7,Time
,,Chunyu,1,M,23,2025-04-23_22h37.54.705,Serial_Dependence_U,2023.2.3,Win32,238.0952381,,,,,,,,,,,,2514.2573,5,2514.2575,,,,2517.2761,2517.768,2516.7655,2517.2759,2515.2575,45,2516.765,2517.7682,2518.2669,2518.2669,2520.0686,1504,2520.0689,3,2521.0689,5,43,313,7,1,1.5,0.3,Time
,,Chunyu,1,M,23,2025-04-23_22h37.54.705,Serial_Dependence_U,2023.2.3,Win32,238.0952381,,,,,,,,,,,,2521.0698,5,2521.07,,,,2523.7052,2524.2006,2523.1924,2523.705,2522.0785,202,2523.1924,2524.2006,2524.7038,2524.7039,2526.1129,1249,2526.1132,4,2527.1071,5,44,314,12,1,1.1,0.7,Time
,,Chunyu,1,M,23,2025-04-23_22h37.54.705,Serial_Dependence_U,2023.2.3,Win32,238.0952381,,,,,,,,,,,,2527.1082,5,2527.1086,,,,2529.5352,2530.0387,2529.0259,2529.535,2528.1207,358,2529.0257,2530.0387,2530.5381,2530.5381,2532.0086,1322.9,2532.0088,5,2533.0081,5,45,315,37,1,0.9,0.3,Time
,,Chunyu,1,M,23,2025-04-23_22h37.54.705,Serial_Dependence_U,2023.2.3,Win32,238.0952381,,,,,,,,,,,,2533.0091,5,2533.0094,,,,2535.4261,2535.9291,2534.9193,2535.4257,2534.0174,216,2534.9191,2535.9292,2536.4246,2536.4248,2537.5523,922.7,2537.5532,3,2538.5566,5,46,316,46,1,0.9,0.7,Time
,,Chunyu,1,M,23,2025-04-23_22h37.54.705,Serial_Dependence_U,2023.2.3,Win32,238.0952381,,,,,,,,,,,,2538.5577,5,2538.5581,,,,2541.2815,2541.778,2540.7804,2541.2814,2539.5696,149,2540.7799,2541.7781,2542.2693,2542.2694,2543.3114,824.1,2543.3116,1,2544.3097,5,47,317,13,1,1.2,0.7,Time
,,Chunyu,1,M,23,2025-04-23_22h37.54.705,Serial_Dependence_U,2023.2.3,Win32,238.0952381,,,,,,,,,,,,2544.31,5,2544.31,,,,2547.4497,2547.9444,2546.9384,2547.4494,2545.3203,10,2546.9383,2547.9445,2548.4447,2548.4447,2550.5582,1871.2,2550.5586,4,2551.5527,5,48,318,26,1,1.6,0.3,Time
,,Chunyu,1,M,23,2025-04-23_22h37.54.705,Serial_Dependence_U,2023.2.3,Win32,238.0952381,,,,,,,,,,,,2551.5531,5,2551.5532,,,,2554.4605,2554.9629,2553.9526,2554.4603,2552.5481,204,2553.9525,2554.9629,2555.4561,2555.4562,2557.0417,1333.9,2557.0421,3,2558.0411,5,49,319,24,1,1.4,0.3,Time
,,Chunyu,1,M,23,2025-04-23_22h37.54.705,Serial_Dependence_U,2023.2.3,Win32,238.0952381,,,,,,,,,,,,2558.0423,5,2558.0427,,,,2560.9645,2561.46,2560.4629,2560.964,2559.0514,351,2560.4627,2561.4601,2561.9583,2561.9584,2563.7262,1485.2,2563.7263,4,2564.722,5,50,320,15,1,1.4,0.7,Time
,,Chunyu,1,M,23,2025-04-23_22h37.54.705,Serial_Dependence_U,2023.2.3,Win32,238.0952381,,,,,,,,,,,,2564.7222,5,2564.7223,,,,2567.7464,2568.2564,2567.2374,2567.7462,2565.729,57,2567.2371,2568.2564,2568.7498,2568.7498,2570.5732,1512,2570.5735,3,2571.5698,5,51,321,34,1,1.5,0.7,Time
,,Chunyu,1,M,23,2025-04-23_22h37.54.705,Serial_Dependence_U,2023.2.3,Win32,238.0952381,,,,,,,,,,,,2571.571,5,2571.5711,,,,2574.3009,2574.8073,2573.796,2574.3008,2572.5743,102,2573.7955,2574.8073,2575.3003,2575.3004,2577.0125,1559.8,2577.0127,4,2578.0021,5,52,322,31,1,1.2,0.7,Time
,,Chunyu,1,M,23,2025-04-23_22h37.54.705,Serial_Dependence_U,2023.2.3,Win32,238.0952381,,,,,,,,,,,,2578.003,5,2578.0033,,,,2580.7086,2581.2062,2580.2058,2580.7084,2579.0006,61,2580.2052,2581.2063,2581.7112,2581.7112,2583.2598,1397.5,2583.26,4,2584.2565,5,53,323,4,1,1.2,0.3,Time
,,Chunyu,1,M,23,2025-04-23_22h37.54.705,Serial_Dependence_U,2023.2.3,Win32,238.0952381,,,,,,,,,,,,2584.2569,6,2586.673,s,2.4017,,2589.6133,2590.1173,2589.1013,2589.6132,2587.6867,31,2589.1007,2590.1174,2590.6097,2590.6097,2592.1496,1267.1,2592.1498,2,2593.1428,6,0,324,51,1,1.4,0.7,Time
,,Chunyu,1,M,23,2025-04-23_22h37.54.705,Serial_Dependence_U,2023.2.3,Win32,238.0952381,,,,,,,,,,,,2593.1436,6,2593.1457,,,,2596.1721,2596.6679,2595.6649,2596.1717,2594.1511,16,2595.6646,2596.6679,2597.1713,2597.1714,2598.8303,1388.5,2598.8306,2,2599.8268,6,1,325,25,1,1.5,0.3,Time
,,Chunyu,1,M,23,2025-04-23_22h37.54.705,Serial_Dependence_U,2023.2.3,Win32,238.0952381,,,,,,,,,,,,2599.8271,6,2599.8272,,,,2602.1553,2602.6634,2601.6535,2602.1549,2600.8397,317,2601.6533,2602.6634,2603.1683,2603.1683,2604.4733,1034.5,2604.4741,4,2605.479,6,2,326,36,1,0.8,0.3,Time
,,Chunyu,1,M,23,2025-04-23_22h37.54.705,Serial_Dependence_U,2023.2.3,Win32,238.0952381,,,,,,,,,,,,2605.4803,6,2605.4806,,,,2607.9117,2608.4153,2607.407,2607.9116,2606.4959,111,2607.4069,2608.4153,2608.9206,2608.9206,2610.5507,1285.3,2610.5509,5,2611.5541,6,3,327,19,1,0.9,0.3,Time
,,Chunyu,1,M,23,2025-04-23_22h37.54.705,Serial_Dependence_U,2023.2.3,Win32,238.0952381,,,,,,,,,,,,2611.5546,6,2611.5547,,,,2614.4659,2614.9729,2613.9541,2614.4655,2612.5494,67,2613.9537,2614.9729,2615.4677,2615.4677,2617.1096,1489.7,2617.1098,4,2618.1107,6,4,328,15,1,1.4,0.7,Time
,,Chunyu,1,M,23,2025-04-23_22h37.54.705,Serial_Dependence_U,2023.2.3,Win32,238.0952381,,,,,,,,,,,,2618.1113,6,2618.1115,,,,2620.627,2621.1353,2620.1158,2620.6269,2619.1141,312,2620.1154,2621.1355,2621.6273,2621.6275,2623.3807,1492.4,2623.3809,5,2624.3816,6,5,329,29,1,1,0.7,Time
,,Chunyu,1,M,23,2025-04-23_22h37.54.705,Serial_Dependence_U,2023.2.3,Win32,238.0952381,,,,,,,,,,,,2624.3819,6,2624.3819,,,,2627.0028,2627.5019,2626.4968,2627.0026,2625.3863,142,2626.4966,2627.5019,2627.9973,2627.9974,2629.4098,1178.3,2629.41,4,2630.3984,6,6,330,12,1,1.1,0.7,Time
,,Chunyu,1,M,23,2025-04-23_22h37.54.705,Serial_Dependence_U,2023.2.3,Win32,238.0952381,,,,,,,,,,,,2630.3986,6,2630.3986,,,,2633.1309,2633.63,2632.6227,2633.1305,2631.4149,329,2632.6224,2633.63,2634.1325,2634.1325,2635.8488,1390,2635.8491,4,2636.8449,6,7,331,13,1,1.2,0.7,Time
,,Chunyu,1,M,23,2025-04-23_22h37.54.705,Serial_Dependence_U,2023.2.3,Win32,238.0952381,,,,,,,,,,,,2636.8462,6,2636.8463,,,,2639.8719,2640.3742,2639.3621,2639.8719,2637.8501,346,2639.3616,2640.3743,2640.8766,2640.8766,2642.8486,1641,2642.8488,4,2643.8454,6,8,332,52,1,1.5,0.7,Time
,,Chunyu,1,M,23,2025-04-23_22h37.54.705,Serial_Dependence_U,2023.2.3,Win32,238.0952381,,,,,,,,,,,,2643.8458,6,2643.8458,,,,2646.6704,2647.1688,2646.1577,2646.67,2644.847,29,2646.1573,2647.1688,2647.6739,2647.6739,2649.3636,1474,2649.3639,4,2650.3688,6,9,333,32,1,1.3,0.7,Time
,,Chunyu,1,M,23,2025-04-23_22h37.54.705,Serial_Dependence_U,2023.2.3,Win32,238.0952381,,,,,,,,,,,,2650.3698,6,2650.3699,,,,2652.99,2653.493,2652.4846,2652.9899,2651.3633,121,2652.4844,2653.4932,2654.0017,2654.0017,2655.4415,1282.1,2655.4418,4,2656.4435,6,10,334,21,1,1.1,0.3,Time
,,Chunyu,1,M,23,2025-04-23_22h37.54.705,Serial_Dependence_U,2023.2.3,Win32,238.0952381,,,,,,,,,,,,2656.4438,6,2656.4439,,,,2658.854,2659.353,2658.3508,2658.8539,2657.4369,92,2658.3506,2659.3531,2659.8514,2659.8515,2661.3464,1235.4,2661.3469,5,2662.3524,6,11,335,28,1,0.9,0.7,Time
,,Chunyu,1,M,23,2025-04-23_22h37.54.705,Serial_Dependence_U,2023.2.3,Win32,238.0952381,,,,,,,,,,,,2662.3526,6,2662.3527,,,,2665.1694,2665.6699,2664.6669,2665.169,2663.3606,87,2664.6667,2665.67,2666.1785,2666.1785,2667.8858,1447.6,2667.8863,4,2668.8852,6,12,336,41,1,1.3,0.3,Time
,,Chunyu,1,M,23,2025-04-23_22h37.54.705,Serial_Dependence_U,2023.2.3,Win32,238.0952381,,,,,,,,,,,,2668.8864,6,2668.887,,,,2671.6135,2672.1153,2671.1052,2671.6132,2669.8926,348,2671.1047,2672.1153,2672.6161,2672.6163,2674.4847,1488.8,2674.4848,4,2675.4945,6,13,337,31,1,1.2,0.7,Time
,,Chunyu,1,M,23,2025-04-23_22h37.54.705,Serial_Dependence_U,2023.2.3,Win32,238.0952381,,,,,,,,,,,,2675.4947,6,2675.4948,,,,2678.0109,2678.5058,2677.5077,2678.0102,2676.4962,158,2677.5073,2678.506,2679.001,2679.001,2680.5969,1363.8,2680.5971,5,2681.5941,6,14,338,2,1,1,0.3,Time
,,Chunyu,1,M,23,2025-04-23_22h37.54.705,Serial_Dependence_U,2023.2.3,Win32,238.0952381,,,,,,,,,,,,2681.5945,6,2681.5946,,,,2684.2176,2684.7239,2683.7066,2684.2175,2682.5966,336,2683.706,2684.7239,2685.2232,2685.2233,2686.7713,1296.2,2686.7716,4,2687.7685,6,15,339,48,1,1.1,0.7,Time
,,Chunyu,1,M,23,2025-04-23_22h37.54.705,Serial_Dependence_U,2023.2.3,Win32,238.0952381,,,,,,,,,,,,2687.769,6,2687.769,,,,2690.4973,2690.9969,2689.9885,2690.4973,2688.7768,76,2689.9883,2690.9969,2691.4929,2691.493,2693.2235,1379.5,2693.2238,4,2694.2215,6,16,340,22,1,1.2,0.3,Time
,,Chunyu,1,M,23,2025-04-23_22h37.54.705,Serial_Dependence_U,2023.2.3,Win32,238.0952381,,,,,,,,,,,,2694.2227,6,2694.223,,,,2697.1463,2697.6451,2696.6398,2697.1463,2695.2317,335,2696.6396,2697.6452,2698.1418,2698.1419,2699.607,1183.2,2699.6072,2,2700.603,6,17,341,33,1,1.4,0.7,Time
,,Chunyu,1,M,23,2025-04-23_22h37.54.705,Serial_Dependence_U,2023.2.3,Win32,238.0952381,,,,,,,,,,,,2700.6033,6,2700.6034,,,,2703.1039,2703.5999,2702.6015,2703.1033,2701.595,70,2702.6011,2703.6,2704.1028,2704.103,2705.6035,1269.7,2705.6037,4,2706.5947,6,18,342,38,1,1,0.3,Time
,,Chunyu,1,M,23,2025-04-23_22h37.54.705,Serial_Dependence_U,2023.2.3,Win32,238.0952381,,,,,,,,,,,,2706.5956,6,2706.5958,,,,2708.9253,2709.4203,2708.4126,2708.9249,2707.6034,239,2708.4122,2709.4204,2709.9192,2709.9194,2711.5538,1250.3,2711.5541,5,2712.5489,6,19,343,45,1,0.8,0.7,Time
,,Chunyu,1,M,23,2025-04-23_22h37.54.705,Serial_Dependence_U,2023.2.3,Win32,238.0952381,,,,,,,,,,,,2712.5499,6,2712.5501,,,,2715.2692,2715.7672,2714.762,2715.2691,2713.554,72,2714.7614,2715.7672,2716.2623,2716.2623,2718.0487,1247.8,2718.0491,3,2719.0401,6,20,344,49,1,1.2,0.7,Time
,,Chunyu,1,M,23,2025-04-23_22h37.54.705,Serial_Dependence_U,2023.2.3,Win32,238.0952381,,,,,,,,,,,,2719.0408,6,2719.041,,,,2721.6656,2722.1718,2721.155,2721.6654,2720.0487,332,2721.1544,2722.1718,2722.6637,2722.6638,2724.4964,1273.6,2724.4966,4,2725.4957,6,21,345,39,1,1.1,0.3,Time
,,Chunyu,1,M,23,2025-04-23_22h37.54.705,Serial_Dependence_U,2023.2.3,Win32,238.0952381,,,,,,,,,,,,2725.4968,6,2725.4972,,,,2728.6299,2729.1303,2728.1142,2728.6297,2726.4999,294,2728.1137,2729.1304,2729.6309,2729.631,2731.1568,1306.8,2731.157,2,2732.1536,6,22,346,53,1,1.6,0.7,Time
,,Chunyu,1,M,23,2025-04-23_22h37.54.705,Serial_Dependence_U,2023.2.3,Win32,238.0952381,,,,,,,,,,,,2732.1539,6,2732.154,,,,2734.787,2735.2824,2734.285,2734.7868,2733.1676,168,2734.2847,2735.2825,2735.7823,2735.7824,2737.3643,1350.4,2737.3645,4,2738.3624,6,23,347,30,1,1.1,0.7,Time
,,Chunyu,1,M,23,2025-04-23_22h37.54.705,Serial_Dependence_U,2023.2.3,Win32,238.0952381,,,,,,,,,,,,2738.3631,6,2738.3633,,,,2740.7837,2741.2865,2740.2678,2740.7834,2739.3631,274,2740.2675,2741.2866,2741.7831,2741.7832,2743.3593,1295,2743.3594,5,2744.3579,6,24,348,1,1,0.9,0.3,Time
,,Chunyu,1,M,23,2025-04-23_22h37.54.705,Serial_Dependence_U,2023.2.3,Win32,238.0952381,,,,,,,,,,,,2744.3586,6,2744.3588,,,,2747.4878,2747.9863,2746.9858,2747.4878,2745.3783,226,2746.9857,2747.9863,2748.4811,2748.4813,2750.0537,1361.5,2750.0541,2,2751.0524,6,25,349,44,1,1.6,0.3,Time
,,Chunyu,1,M,23,2025-04-23_22h37.54.705,Serial_Dependence_U,2023.2.3,Win32,238.0952381,,,,,,,,,,,,2751.0532,6,2751.0534,,,,2753.8658,2754.3567,2753.3597,2753.8654,2752.0505,177,2753.3596,2754.3567,2754.8625,2754.8625,2756.322,1222,2756.3225,2,2757.3114,6,26,350,5,1,1.3,0.3,Time
,,Chunyu,1,M,23,2025-04-23_22h37.54.705,Serial_Dependence_U,2023.2.3,Win32,238.0952381,,,,,,,,,,,,2757.3123,6,2757.3125,,,,2760.2402,2760.7363,2759.7358,2760.24,2758.3258,211,2759.7357,2760.7364,2761.2374,2761.2376,2762.7497,1288.7,2762.7498,2,2763.7461,6,27,351,6,1,1.4,0.3,Time
,,Chunyu,1,M,23,2025-04-23_22h37.54.705,Serial_Dependence_U,2023.2.3,Win32,238.0952381,,,,,,,,,,,,2763.747,6,2763.7472,,,,2766.0616,2766.5619,2765.5591,2766.0611,2764.7521,6,2765.559,2766.562,2767.0611,2767.0612,2768.5418,1271.5,2768.542,5,2769.5407,6,28,352,27,1,0.8,0.7,Time
,,Chunyu,1,M,23,2025-04-23_22h37.54.705,Serial_Dependence_U,2023.2.3,Win32,238.0952381,,,,,,,,,,,,2769.5418,6,2769.5422,,,,2772.4677,2772.9733,2771.9622,2772.4673,2770.553,326,2771.9617,2772.9734,2773.471,2773.471,2775.1872,1388.7,2775.1877,3,2776.1877,6,29,353,42,1,1.4,0.3,Time
,,Chunyu,1,M,23,2025-04-23_22h37.54.705,Serial_Dependence_U,2023.2.3,Win32,238.0952381,,,,,,,,,,,,2776.1885,6,2776.1887,,,,2779.0178,2779.5187,2778.5168,2779.0177,2777.2068,71,2778.5166,2779.5187,2780.0167,2780.0169,2781.9658,1578.2,2781.9659,4,2782.9594,6,30,354,14,1,1.3,0.7,Time
,,Chunyu,1,M,23,2025-04-23_22h37.54.705,Serial_Dependence_U,2023.2.3,Win32,238.0952381,,,,,,,,,,,,2782.9604,6,2782.9607,,,,2785.5774,2786.0698,2785.072,2785.5773,2783.9587,232,2785.0718,2786.0698,2786.5641,2786.5643,2788.2416,1359.6,2788.2418,4,2789.2347,6,31,355,3,1,1.1,0.3,Time
,,Chunyu,1,M,23,2025-04-23_22h37.54.705,Serial_Dependence_U,2023.2.3,Win32,238.0952381,,,,,,,,,,,,2789.2351,6,2789.2353,,,,2791.5472,2792.0478,2791.0392,2791.5471,2790.2322,164,2791.0391,2792.0478,2792.5511,2792.5513,2794.1439,1330.3,2794.1443,5,2795.1441,6,32,356,18,1,0.8,0.3,Time
,,Chunyu,1,M,23,2025-04-23_22h37.54.705,Serial_Dependence_U,2023.2.3,Win32,238.0952381,,,,,,,,,,,,2795.1443,6,2795.1444,,,,2797.4713,2797.9758,2796.9653,2797.4711,2796.1487,241,2796.9653,2797.9758,2798.4716,2798.4716,2799.8087,1054.1,2799.809,5,2800.8082,6,33,357,0,1,0.8,0.3,Time
