expName,Block_resp_2.rt,ITI.started,Mask_2.started,trials.thisRepN,direction,__session,key_resp_2.rt,FeedbackID_T,block.stopped,Scale_setup.stopped,date,Feedback_Time.started,sex,screen_scale_keys.stopped,TrialType,frameRate,trials.ran,Coherence1,__experimentName,Response.stopped,ITI.stopped,rectangel_keys.started,participant,Block_id,OS,screen_scale_keys.started,key_resp_2.keys,psychopyVersion,rectangel_keys.stopped,age,Y Scale,M2.started,Intro.stopped,Feedback_Time.stopped,trials.thisN,TimeDur,keyDuration,block.started,__participant,Cue.started,M2.stopped,Response.started,X Scale,session,Cue.stopped,trials.thisIndex,__datetime,Intro.started,Scale_setup.started,Mask_2.stopped,Block_resp_2.keys,trials.thisTrialN
﻿Serial_Dependence_U,,,,,,001,,,,0.00019999998806952135,2025-04-30_21h18.33.942,,m,,,238.09523809622803,,,SDMT1,,,,048844,,Win32,,,2023.2.3,,19,,,,,,,,,048844,,,,,001,,,2025-04-30_21h14.19.501,,9.999999406318238e-05,,,
﻿Serial_Dependence_U,,,,,,001,457.4170999999941,,,,2025-04-30_21h18.33.942,,m,205.17989999997613,,238.09523809622803,,,SDMT1,,,205.18009999999398,048844,,Win32,0.0009999999999763531,space,2023.2.3,233.78789999997613,19,0.0458,,691.2245,,,,,,048844,,,,0.0469,001,,,2025-04-30_21h14.19.501,233.788099999994,,,,
﻿Serial_Dependence_U,6.5094000000059395,700.6635,700.1575999999941,0,242,001,,2,697.7535,,2025-04-30_21h18.33.942,703.3462999999821,m,,Time,238.09523809622803,1,0.3,SDMT1,703.3460999999941,701.161599999994,,048844,0,Win32,,,2023.2.3,,19,,698.7556999999881,,704.346599999994,0,1.4,990,691.2308999999761,048844,701.161599999994,700.1575999999941,701.662099999994,,001,701.6618999999762,24,2025-04-30_21h14.19.501,,,700.6633999999761,s,0
﻿Serial_Dependence_U,,707.457599999994,706.957,0,69,001,,1,704.3477999999822,,2025-04-30_21h18.33.942,710.8515,m,,Time,238.09523809622803,1,0.7,SDMT1,710.8515,707.9573999999761,,048844,0,Win32,,,2023.2.3,,19,,705.3552999999821,,711.8498999999762,1,1.6,1015.5999999940395,704.3468999999761,048844,707.9573999999761,706.957,708.459099999994,,001,708.459099999994,17,2025-04-30_21h14.19.501,,,707.4573999999761,,1
﻿Serial_Dependence_U,,714.6572999999821,714.157,0,111,001,,3,711.850199999988,,2025-04-30_21h18.33.942,717.642599999994,m,,Time,238.09523809622803,1,0.3,SDMT1,717.6423999999762,715.157099999994,,048844,0,Win32,,,2023.2.3,,19,,712.8535,,718.6416999999881,2,1.3,1270.300000011921,711.8500999999941,048844,715.157099999994,714.1568999999762,715.6542999999821,,001,715.6541999999881,5,2025-04-30_21h14.19.501,,,714.6572999999821,,2
﻿Serial_Dependence_U,,721.1485999999941,720.6458999999761,0,88,001,,2,718.642099999994,,2025-04-30_21h18.33.942,723.7502999999821,m,,Time,238.09523809622803,1,0.3,SDMT1,723.7501999999881,721.6485999999941,,048844,0,Win32,,,2023.2.3,,19,,719.6421999999881,,724.748099999994,3,1,778.9000000059605,718.642,048844,721.6485999999941,720.6457999999822,722.1488999999762,,001,722.1488999999762,20,2025-04-30_21h14.19.501,,,721.1485,,3
﻿Serial_Dependence_U,,727.755,727.253699999988,0,357,001,,3,724.7482999999821,,2025-04-30_21h18.33.942,731.4583999999761,m,,Time,238.09523809622803,1,0.7,SDMT1,731.4582999999822,728.252599999994,,048844,0,Win32,,,2023.2.3,,19,,725.7501999999881,,732.456199999988,4,1.5,1441.9000000059605,724.7482999999821,048844,728.252599999994,727.253699999988,728.752599999994,,001,728.7524999999999,16,2025-04-30_21h14.19.501,,,727.7548999999761,,4
﻿Serial_Dependence_U,,734.8652999999821,734.362599999994,0,36,001,,2,732.4565,,2025-04-30_21h18.33.942,737.450699999988,m,,Time,238.09523809622803,1,0.7,SDMT1,737.450699999988,735.3661999999881,,048844,0,Win32,,,2023.2.3,,19,,733.4581999999881,,738.4518999999761,5,0.9,853.3000000119209,732.4563999999762,048844,735.3661999999881,734.3625,735.8645999999941,,001,735.8645999999941,46,2025-04-30_21h14.19.501,,,734.865199999988,,5
﻿Serial_Dependence_U,,741.566199999988,741.0603999999762,0,310,001,,3,738.4520999999941,,2025-04-30_21h18.33.942,744.5868999999761,m,,Time,238.09523809622803,1,0.3,SDMT1,744.5867999999821,742.0643999999761,,048844,0,Win32,,,2023.2.3,,19,,739.4573999999761,,745.5852999999821,6,1.6,1549.4000000059605,738.4520999999941,048844,742.0645,741.0603999999762,742.5641999999881,,001,742.5641999999881,8,2025-04-30_21h14.19.501,,,741.566099999994,,6
﻿Serial_Dependence_U,,748.3935,747.891099999994,0,217,001,,3,745.585699999988,,2025-04-30_21h18.33.942,751.4797999999821,m,,Time,238.09523809622803,1,0.7,SDMT1,751.479699999988,748.8935999999941,,048844,0,Win32,,,2023.2.3,,19,,746.587,,752.4805999999941,7,1.3,1300.8999999761581,745.5855999999941,048844,748.8935999999941,747.891,749.3932999999821,,001,749.393199999988,14,2025-04-30_21h14.19.501,,,748.3933999999762,,7
﻿Serial_Dependence_U,,754.7866999999881,754.285099999994,0,303,001,,2,752.4807999999821,,2025-04-30_21h18.33.942,756.8532999999821,m,,Time,238.09523809622803,1,0.7,SDMT1,756.8531999999881,755.2847999999822,,048844,0,Win32,,,2023.2.3,,19,,753.4813999999761,,757.851599999994,8,0.8,649.8000000119209,752.4806999999881,048844,755.2847999999822,754.285,755.7847999999822,,001,755.7847999999822,45,2025-04-30_21h14.19.501,,,754.7866999999881,,8
﻿Serial_Dependence_U,,760.7617999999821,760.2598999999761,0,108,001,,1,757.8518999999761,,2025-04-30_21h18.33.942,763.7013999999762,m,,Time,238.09523809622803,1,0.7,SDMT1,763.701199999988,761.2597999999821,,048844,0,Win32,,,2023.2.3,,19,,758.8573999999761,,764.7015,9,1.4,901.7000000178814,757.8517999999821,048844,761.2597999999821,760.2597999999821,761.7597999999821,,001,761.7597999999821,33,2025-04-30_21h14.19.501,,,760.7617999999821,,9
﻿Serial_Dependence_U,,767.8093999999761,767.3072999999821,0,61,001,,4,764.7018999999763,,2025-04-30_21h18.33.942,772.9140999999938,m,,Time,238.09523809622803,1,0.7,SDMT1,772.914,768.3096999999881,,048844,0,Win32,,,2023.2.3,,19,,765.7053999999761,,773.913399999976,10,1.6,2027.5,764.7017999999822,048844,768.3096999999881,767.3072999999821,768.809299999982,,001,768.809299999982,35,2025-04-30_21h14.19.501,,,767.8093999999761,,10
﻿Serial_Dependence_U,,776.5218999999761,776.0174999999999,0,135,001,,0,773.913699999988,,2025-04-30_21h18.33.942,783.5256999999879,m,,Time,238.09523809622803,1,0.7,SDMT1,783.5256999999879,777.0214999999998,,048844,0,Win32,,,2023.2.3,,19,,774.9166999999879,,784.5229999999999,11,1.1,9999,773.913699999988,048844,777.0214999999998,776.0174999999999,777.521699999988,,001,777.521699999988,48,2025-04-30_21h14.19.501,,,776.5218999999761,,11
﻿Serial_Dependence_U,,787.4311999999879,786.9255999999939,0,159,001,,1,784.5232999999821,,2025-04-30_21h18.33.942,789.8941999999879,m,,Time,238.09523809622803,1,0.7,SDMT1,789.8940999999938,787.929899999976,,048844,0,Win32,,,2023.2.3,,19,,785.5234999999998,,790.8923999999761,12,1.4,930,784.523199999988,048844,787.929899999976,786.9254999999998,788.429599999994,,001,788.4295,51,2025-04-30_21h14.19.501,,,787.4311999999879,,12
﻿Serial_Dependence_U,,793.300399999976,792.796599999994,0,95,001,,2,790.892699999988,,2025-04-30_21h18.33.942,795.4358999999761,m,,Time,238.09523809622803,1,0.3,SDMT1,795.435799999982,793.8002999999819,,048844,0,Win32,,,2023.2.3,,19,,791.896399999976,,796.4335999999939,13,0.9,633.3000000119209,790.892699999988,048844,793.8002999999819,792.7964999999999,794.3001999999879,,001,794.3001999999879,1,2025-04-30_21h14.19.501,,,793.300399999976,,13
﻿Serial_Dependence_U,,798.7436999999879,798.2397999999821,0,220,001,,1,796.4338999999761,,2025-04-30_21h18.33.942,800.2379999999998,m,,Time,238.09523809622803,1,0.7,SDMT1,800.237899999976,799.241799999982,,048844,0,Win32,,,2023.2.3,,19,,797.435399999976,,801.2377999999819,14,0.8,28.799999982118607,796.433799999982,048844,799.241799999982,798.239699999988,799.7421999999879,,001,799.7421999999879,9,2025-04-30_21h14.19.501,,,798.7436999999879,,14
﻿Serial_Dependence_U,,804.2501999999879,803.746199999988,0,71,001,,4,801.2383999999761,,2025-04-30_21h18.33.942,808.462299999982,m,,Time,238.09523809622803,1,0.3,SDMT1,808.4621999999879,804.7501999999879,,048844,0,Win32,,,2023.2.3,,19,,802.242,,809.462699999988,15,1.5,1834.1000000238419,801.238199999988,048844,804.7501999999879,803.7460999999939,805.2499999999998,,001,805.2499999999998,25,2025-04-30_21h14.19.501,,,804.2500999999938,,15
﻿Serial_Dependence_U,,812.0708999999761,811.568799999982,0,155,001,,4,809.4631999999879,,2025-04-30_21h18.33.942,814.6120999999939,m,,Time,238.09523809622803,1,0.3,SDMT1,814.6119999999999,812.5708999999761,,048844,0,Win32,,,2023.2.3,,19,,810.4641999999881,,815.6120999999939,16,1.1,1199.800000011921,809.463099999994,048844,812.5709999999999,811.568699999988,813.0708999999761,,001,813.0708999999761,39,2025-04-30_21h14.19.501,,,812.070799999982,,16
﻿Serial_Dependence_U,,818.022399999976,817.518299999982,0,307,001,,2,815.612299999982,,2025-04-30_21h18.33.942,820.003899999976,m,,Time,238.09523809622803,1,0.7,SDMT1,820.003899999976,818.520699999988,,048844,0,Win32,,,2023.2.3,,19,,816.6164999999999,,821.0010999999938,17,0.9,826.8000000119209,815.612199999988,048844,818.520699999988,817.518299999982,819.020399999976,,001,819.020399999976,28,2025-04-30_21h14.19.501,,,818.022399999976,,17
﻿Serial_Dependence_U,,823.812099999994,823.310099999994,0,345,001,,4,821.0012999999819,,2025-04-30_21h18.33.942,826.764199999988,m,,Time,238.09523809622803,1,0.3,SDMT1,826.764099999994,824.311899999976,,048844,0,Win32,,,2023.2.3,,19,,822.0035999999939,,827.761799999982,18,1.3,1412.7999999821186,821.0012999999819,048844,824.311899999976,823.310099999994,824.8119999999999,,001,824.811899999976,41,2025-04-30_21h14.19.501,,,823.8119999999999,,18
﻿Serial_Dependence_U,,830.770799999982,830.270399999976,0,50,001,,3,827.762099999994,,2025-04-30_21h18.33.942,833.863199999988,m,,Time,238.09523809622803,1,0.3,SDMT1,833.8630999999939,831.2704999999999,,048844,0,Win32,,,2023.2.3,,19,,828.765899999976,,834.8619999999999,19,1.5,1468.7999999821186,827.762,048844,831.2704999999999,830.270299999982,831.770299999982,,001,831.770299999982,43,2025-04-30_21h14.19.501,,,830.770799999982,,19
﻿Serial_Dependence_U,,837.167899999976,836.6661999999881,0,261,001,,2,834.8623999999761,,2025-04-30_21h18.33.942,838.972399999976,m,,Time,238.09523809622803,1,0.3,SDMT1,838.9722999999819,837.6658999999761,,048844,0,Win32,,,2023.2.3,,19,,835.865699999988,,839.969599999994,20,0.8,757.9000000059605,834.862299999982,048844,837.6658999999761,836.666099999994,838.166099999994,,001,838.166099999994,36,2025-04-30_21h14.19.501,,,837.167899999976,,20
﻿Serial_Dependence_U,,842.782399999976,842.2798999999761,0,86,001,,2,839.9699999999998,,2025-04-30_21h18.33.942,845.669899999976,m,,Time,238.09523809622803,1,0.7,SDMT1,845.6697999999819,843.283799999982,,048844,0,Win32,,,2023.2.3,,19,,840.9739999999999,,846.669599999994,21,1.3,1046.5999999940395,839.9697999999821,048844,843.283799999982,842.2798999999761,843.783799999982,,001,843.783799999982,50,2025-04-30_21h14.19.501,,,842.782399999976,,21
﻿Serial_Dependence_U,,849.782199999988,849.2781999999879,0,291,001,,2,846.670199999988,,2025-04-30_21h18.33.942,852.712799999982,m,,Time,238.09523809622803,1,0.7,SDMT1,852.712699999988,850.282099999994,,048844,0,Win32,,,2023.2.3,,19,,847.674399999976,,853.711299999982,22,1.6,1359.199999988079,846.6699999999998,048844,850.282099999994,849.2780999999939,850.7818999999761,,001,850.781799999982,53,2025-04-30_21h14.19.501,,,849.782099999994,,22
﻿Serial_Dependence_U,,856.420899999976,855.9154999999998,0,164,001,,2,853.711699999988,,2025-04-30_21h18.33.942,858.908899999976,m,,Time,238.09523809622803,1,0.7,SDMT1,858.908799999982,856.919599999994,,048844,0,Win32,,,2023.2.3,,19,,854.7114999999999,,859.9085999999938,23,1.2,1111,853.711599999994,048844,856.919599999994,855.915399999976,857.419599999994,,001,857.419599999994,13,2025-04-30_21h14.19.501,,,856.4207999999819,,23
﻿Serial_Dependence_U,,862.3194999999998,861.815299999982,0,8,001,,3,859.908799999982,,2025-04-30_21h18.33.942,864.665,m,,Time,238.09523809622803,1,0.3,SDMT1,864.6648999999761,862.8195999999939,,048844,0,Win32,,,2023.2.3,,19,,860.9110999999939,,865.665099999994,24,0.9,902,859.9086999999879,048844,862.8195999999939,861.815199999988,863.3195999999939,,001,863.3194999999998,19,2025-04-30_21h14.19.501,,,862.3194999999998,,24
﻿Serial_Dependence_U,,868.069099999994,867.567299999982,0,115,001,,3,865.665399999976,,2025-04-30_21h18.33.942,870.373199999988,m,,Time,238.09523809622803,1,0.3,SDMT1,870.3730999999939,868.5692999999819,,048844,0,Win32,,,2023.2.3,,19,,866.6668999999761,,871.372899999976,25,0.9,916.5,865.665399999976,048844,868.5692999999819,867.567299999982,869.069099999994,,001,869.069099999994,37,2025-04-30_21h14.19.501,,,868.069099999994,,25
﻿Serial_Dependence_U,,874.287299999982,873.7814999999998,0,312,001,,3,871.373199999988,,2025-04-30_21h18.33.942,877.177199999988,m,,Time,238.09523809622803,1,0.3,SDMT1,877.177199999988,874.7857999999819,,048844,0,Win32,,,2023.2.3,,19,,872.378799999982,,878.1742999999819,26,1.4,1418.4000000059605,871.373199999988,048844,874.7857999999819,873.781399999976,875.2856999999879,,001,875.2856999999879,42,2025-04-30_21h14.19.501,,,874.2871999999879,,26
﻿Serial_Dependence_U,,880.779,880.277599999994,0,208,001,,2,878.174699999988,,2025-04-30_21h18.33.942,883.3019999999999,m,,Time,238.09523809622803,1,0.7,SDMT1,883.3018999999761,881.2771999999879,,048844,0,Win32,,,2023.2.3,,19,,879.177199999988,,884.2991999999879,27,1.1,990.3999999761581,878.1745999999939,048844,881.277299999982,880.2774999999999,881.777299999982,,001,881.7771999999879,12,2025-04-30_21h14.19.501,,,880.779,,27
﻿Serial_Dependence_U,,887.006599999994,886.5036999999879,0,146,001,,2,884.2995999999939,,2025-04-30_21h18.33.942,889.223,m,,Time,238.09523809622803,1,0.3,SDMT1,889.222699999988,887.506199999988,,048844,0,Win32,,,2023.2.3,,19,,885.3023999999759,,890.222399999976,28,1.2,1010.9000000059605,884.2994999999999,048844,887.506199999988,886.5035999999939,888.006199999988,,001,888.0060999999939,40,2025-04-30_21h14.19.501,,,887.0065,,28
﻿Serial_Dependence_U,,893.3312999999821,892.826599999994,0,176,001,,2,890.222799999982,,2025-04-30_21h18.33.942,896.3658999999761,m,,Time,238.09523809622803,1,0.3,SDMT1,896.3657999999821,893.830799999982,,048844,0,Win32,,,2023.2.3,,19,,891.224799999982,,897.365599999994,29,1.6,1378.0999999940395,890.222699999988,048844,893.830799999982,892.826599999994,894.330799999982,,001,894.330799999982,26,2025-04-30_21h14.19.501,,,893.331199999988,,29
﻿Serial_Dependence_U,,900.0740999999939,899.5722999999821,0,286,001,,4,897.3658999999761,,2025-04-30_21h18.33.942,902.8512999999821,m,,Time,238.09523809622803,1,0.3,SDMT1,902.851199999988,900.5737999999819,,048844,0,Win32,,,2023.2.3,,19,,898.368399999976,,903.851199999988,30,1.2,1332.300000011921,897.3657999999821,048844,900.5737999999819,899.5722999999821,901.0737999999819,,001,901.0737999999819,22,2025-04-30_21h14.19.501,,,900.0740999999939,,30
﻿Serial_Dependence_U,,906.759699999988,906.255799999982,0,230,001,,4,903.8515,,2025-04-30_21h18.33.942,909.698899999976,m,,Time,238.09523809622803,1,0.3,SDMT1,909.6987999999819,907.2598999999761,,048844,0,Win32,,,2023.2.3,,19,,904.853199999988,,910.697199999988,31,1.4,1516.7000000178814,903.8513999999761,048844,907.2598999999761,906.2556999999879,907.7597999999821,,001,907.7597999999821,6,2025-04-30_21h14.19.501,,,906.759599999994,,31
﻿Serial_Dependence_U,,913.2073999999761,912.7052999999819,0,150,001,,3,910.6976999999879,,2025-04-30_21h18.33.942,915.6530999999939,m,,Time,238.09523809622803,1,0.3,SDMT1,915.6529999999998,913.705199999988,,048844,0,Win32,,,2023.2.3,,19,,911.7031999999879,,916.651199999988,32,1,1047.7999999821186,910.6975,048844,913.705199999988,912.705199999988,914.2054999999998,,001,914.2054999999998,2,2025-04-30_21h14.19.501,,,913.2072999999821,,32
﻿Serial_Dependence_U,,919.456899999976,918.9555999999939,0,334,001,,2,916.651599999994,,2025-04-30_21h18.33.942,922.094299999982,m,,Time,238.09523809622803,1,0.3,SDMT1,922.0940999999939,919.9562999999821,,048844,0,Win32,,,2023.2.3,,19,,917.652699999988,,923.0926999999879,33,1.3,1111.199999988079,916.6514999999999,048844,919.9562999999821,918.9555999999939,920.4565999999938,,001,920.4565999999938,23,2025-04-30_21h14.19.501,,,919.456899999976,,33
﻿Serial_Dependence_U,,925.503099999994,925.001,0,106,001,,4,923.0943999999761,,2025-04-30_21h18.33.942,928.0028999999761,m,,Time,238.09523809622803,1,0.7,SDMT1,928.0028999999761,926.0021999999879,,048844,0,Win32,,,2023.2.3,,19,,924.0982999999819,,929.0004999999999,34,0.9,1109.2000000178814,923.0929999999998,048844,926.0021999999879,925.001,926.502099999994,,001,926.502099999994,10,2025-04-30_21h14.19.501,,,925.503099999994,,34
﻿Serial_Dependence_U,,931.509299999982,931.0049999999999,0,270,001,,4,929.000699999988,,2025-04-30_21h18.33.942,934.0128999999761,m,,Time,238.09523809622803,1,0.7,SDMT1,934.012799999982,932.0087999999821,,048844,0,Win32,,,2023.2.3,,19,,930.001699999988,,935.0104999999999,35,1,1114.199999988079,929.000699999988,048844,932.0088999999759,931.0046999999879,932.5087999999821,,001,932.5087999999821,47,2025-04-30_21h14.19.501,,,931.5091999999879,,35
﻿Serial_Dependence_U,,938.118799999982,937.617,0,324,001,,2,935.010799999982,,2025-04-30_21h18.33.942,940.6476999999879,m,,Time,238.09523809622803,1,0.3,SDMT1,940.6476999999879,938.6185999999939,,048844,0,Win32,,,2023.2.3,,19,,936.0128999999761,,941.6458999999761,36,1.6,1198.9000000059605,935.010699999988,048844,938.6185999999939,937.6168999999761,939.118399999976,,001,939.1182999999819,44,2025-04-30_21h14.19.501,,,938.1186999999879,,36
﻿Serial_Dependence_U,,944.2544999999998,943.7504999999999,0,199,001,,3,941.646099999994,,2025-04-30_21h18.33.942,946.8694999999998,m,,Time,238.09523809622803,1,0.3,SDMT1,946.8693999999759,944.7543999999759,,048844,0,Win32,,,2023.2.3,,19,,942.6499999999999,,947.8664999999999,37,1.1,1117.5999999940395,941.646099999994,048844,944.7543999999759,943.750399999976,945.2539999999999,,001,945.2539999999999,21,2025-04-30_21h14.19.501,,,944.2544999999998,,37
﻿Serial_Dependence_U,,950.4789999999998,949.9766999999879,0,278,001,,4,947.866799999982,,2025-04-30_21h18.33.942,952.9644999999998,m,,Time,238.09523809622803,1,0.7,SDMT1,952.9642999999819,950.979299999982,,048844,0,Win32,,,2023.2.3,,19,,948.8713999999761,,953.9625999999939,38,1.1,1158.5999999940395,947.866799999982,048844,950.979299999982,949.9766999999879,951.4793999999761,,001,951.4793999999761,30,2025-04-30_21h14.19.501,,,950.4789999999998,,38
﻿Serial_Dependence_U,,956.6752999999819,956.172699999988,0,228,001,,2,953.963,,2025-04-30_21h18.33.942,959.0349999999999,m,,Time,238.09523809622803,1,0.7,SDMT1,959.0349999999999,957.1751999999879,,048844,0,Win32,,,2023.2.3,,19,,954.9666999999879,,960.0332999999821,39,1.2,932.7999999821186,953.9628999999761,048844,957.1752999999819,956.172699999988,957.675,,001,957.675,31,2025-04-30_21h14.19.501,,,956.6752999999819,,39
﻿Serial_Dependence_U,,962.5416999999879,962.039699999988,0,227,001,,3,960.0336999999879,,2025-04-30_21h18.33.942,964.954,m,,Time,238.09523809622803,1,0.3,SDMT1,964.9538999999761,963.041399999976,,048844,0,Win32,,,2023.2.3,,19,,961.0378999999759,,965.954,40,1,1005.7000000178814,960.0335999999938,048844,963.041399999976,962.0395999999939,963.5416999999879,,001,963.5415999999939,38,2025-04-30_21h14.19.501,,,962.5416999999879,,40
﻿Serial_Dependence_U,,968.2625999999939,967.7579999999998,0,351,001,,3,965.9542999999819,,2025-04-30_21h18.33.942,970.4514999999999,m,,Time,238.09523809622803,1,0.3,SDMT1,970.451299999982,968.7621999999881,,048844,0,Win32,,,2023.2.3,,19,,966.9556999999879,,971.449199999988,41,0.8,795.6999999880791,965.9541999999878,048844,968.7621999999881,967.7579999999998,969.2624999999998,,001,969.2624999999998,18,2025-04-30_21h14.19.501,,,968.2625999999939,,41
﻿Serial_Dependence_U,,974.4596999999881,973.9575999999938,0,283,001,,2,971.4495,,2025-04-30_21h18.33.942,977.0825999999938,m,,Time,238.09523809622803,1,0.7,SDMT1,977.0825,974.9573999999761,,048844,0,Win32,,,2023.2.3,,19,,972.455399999976,,978.0830999999939,42,1.5,1270,971.4495,048844,974.9573999999761,973.9575999999938,975.4573999999761,,001,975.4573999999761,52,2025-04-30_21h14.19.501,,,974.459599999994,,42
﻿Serial_Dependence_U,,981.0885999999939,980.586599999994,0,318,001,,4,978.083599999994,,2025-04-30_21h18.33.942,984.0052999999821,m,,Time,238.09523809622803,1,0.3,SDMT1,984.005199999988,981.588099999994,,048844,0,Win32,,,2023.2.3,,19,,979.0837999999819,,985.0044999999998,43,1.5,1598.300000011921,978.0835,048844,981.588099999994,980.586599999994,982.0882999999819,,001,982.0881999999879,7,2025-04-30_21h14.19.501,,,981.0884999999998,,43
﻿Serial_Dependence_U,,987.312899999976,986.808699999988,0,237,001,,2,985.004799999982,,2025-04-30_21h18.33.942,989.3675999999939,m,,Time,238.09523809622803,1,0.7,SDMT1,989.3674999999998,987.8102999999819,,048844,0,Win32,,,2023.2.3,,19,,986.007299999982,,990.365699999988,44,0.8,708.3999999761581,985.0046999999879,048844,987.8102999999819,986.808699999988,988.3088999999761,,001,988.308799999982,27,2025-04-30_21h14.19.501,,,987.312899999976,,44
﻿Serial_Dependence_U,,992.873899999976,992.370199999988,0,82,001,,4,990.3660999999938,,2025-04-30_21h18.33.942,995.498699999988,m,,Time,238.09523809622803,1,0.7,SDMT1,995.498699999988,993.370799999982,,048844,0,Win32,,,2023.2.3,,19,,991.365699999988,,996.498899999976,45,1,1118.7999999821186,990.366,048844,993.370799999982,992.370099999994,993.8719999999998,,001,993.871899999976,29,2025-04-30_21h14.19.501,,,992.8737999999821,,45
﻿Serial_Dependence_U,,999.208299999982,998.7048999999761,0,34,001,,2,996.499299999982,,2025-04-30_21h18.33.942,1001.6883999999761,m,,Time,238.09523809622803,1,0.3,SDMT1,1001.6883999999761,999.7076999999879,,048844,0,Win32,,,2023.2.3,,19,,997.5001999999879,,1002.6858999999761,46,1.2,1093.4000000059605,996.4991999999879,048844,999.7076999999879,998.704799999982,1000.207799999982,,001,1000.207799999982,4,2025-04-30_21h14.19.501,,,999.208299999982,,46
﻿Serial_Dependence_U,,1005.4944999999998,1004.994199999988,0,133,001,,3,1002.6862999999821,,2025-04-30_21h18.33.942,1008.2232999999819,m,,Time,238.09523809622803,1,0.7,SDMT1,1008.2232999999819,1005.991699999988,,048844,0,Win32,,,2023.2.3,,19,,1003.6900999999939,,1009.220599999994,47,1.3,1317.0999999940395,1002.686199999988,048844,1005.991699999988,1004.994199999988,1006.4915999999939,,001,1006.4915999999939,32,2025-04-30_21h14.19.501,,,1005.4943999999759,,47
﻿Serial_Dependence_U,,1011.529,1011.023099999994,0,53,001,,5,1009.2209999999998,,2025-04-30_21h18.33.942,1014.0449999999998,m,,Time,238.09523809622803,1,0.3,SDMT1,1014.0447999999819,1012.0270999999939,,048844,0,Win32,,,2023.2.3,,19,,1010.2209999999998,,1015.0440999999939,48,0.8,1148,1009.2209999999998,048844,1012.0271999999879,1011.0229999999999,1012.527599999994,,001,1012.527599999994,0,2025-04-30_21h14.19.501,,,1011.5288999999761,,48
﻿Serial_Dependence_U,,1018.049799999982,1017.5460999999939,0,259,001,,1,1015.044599999994,,2025-04-30_21h18.33.942,1020.431299999982,m,,Time,238.09523809622803,1,0.7,SDMT1,1020.431299999982,1018.5477999999821,,048844,0,Win32,,,2023.2.3,,19,,1016.0456999999881,,1021.431299999982,49,1.5,976.1000000238419,1015.0443999999761,048844,1018.5477999999821,1017.5459999999998,1019.0481999999879,,001,1019.0481999999879,34,2025-04-30_21h14.19.501,,,1018.049799999982,,49
﻿Serial_Dependence_U,,1023.9417999999821,1023.4372999999821,0,303,001,,4,1021.4317999999821,,2025-04-30_21h18.33.942,1026.443799999982,m,,Time,238.09523809622803,1,0.7,SDMT1,1026.443699999988,1024.439599999994,,048844,0,Win32,,,2023.2.3,,19,,1022.4369999999999,,1027.443299999982,50,1,1117.300000011921,1021.431699999988,048844,1024.439599999994,1023.437199999988,1024.939599999994,,001,1024.939599999994,11,2025-04-30_21h14.19.501,,,1023.9417999999821,,50
﻿Serial_Dependence_U,,1030.0536999999879,1029.549699999988,0,109,001,,3,1027.443599999994,,2025-04-30_21h18.33.942,1032.512299999982,m,,Time,238.09523809622803,1,0.3,SDMT1,1032.512299999982,1030.551699999988,,048844,0,Win32,,,2023.2.3,,19,,1028.4475999999938,,1033.510199999988,51,1.1,1104.4000000059605,1027.4434999999999,048844,1030.551699999988,1029.549599999994,1031.051799999982,,001,1031.051799999982,3,2025-04-30_21h14.19.501,,,1030.0535999999938,,51
﻿Serial_Dependence_U,,1036.218299999982,1035.716099999994,0,235,001,,4,1033.510699999988,,2025-04-30_21h18.33.942,1039.0004999999999,m,,Time,238.09523809622803,1,0.7,SDMT1,1039.000399999976,1036.7197999999821,,048844,0,Win32,,,2023.2.3,,19,,1034.5155999999938,,1040.001399999976,52,1.2,1338,1033.510599999994,048844,1036.7197999999821,1035.716,1037.218399999976,,001,1037.218399999976,49,2025-04-30_21h14.19.501,,,1036.218299999982,,52
﻿Serial_Dependence_U,,1042.911599999994,1042.409899999976,0,110,001,,4,1040.001599999994,,2025-04-30_21h18.33.942,1045.7054999999998,m,,Time,238.09523809622803,1,0.7,SDMT1,1045.705399999976,1043.411299999982,,048844,0,Win32,,,2023.2.3,,19,,1041.007299999982,,1046.705699999988,53,1.4,1471.4000000059605,1040.001599999994,048844,1043.411299999982,1042.409799999982,1043.911299999982,,001,1043.911299999982,15,2025-04-30_21h14.19.501,,,1042.9115,,53
﻿Serial_Dependence_U,38.54090000000588,1087.969199999988,1087.463099999994,1,325,001,,2,1085.2590999999939,,2025-04-30_21h18.33.942,1090.454799999982,m,,Time,238.09523809622803,1,0.3,SDMT1,1090.454699999988,1088.467199999988,,048844,1,Win32,,,2023.2.3,,19,,1086.2604999999999,,1091.454399999976,54,1.2,1041.2000000178814,1046.706,048844,1088.467299999982,1087.4628999999761,1088.967099999994,,001,1088.967099999994,40,2025-04-30_21h14.19.501,,,1087.9689999999998,s,0
﻿Serial_Dependence_U,,1093.866599999994,1093.364599999994,1,60,001,,4,1091.456799999982,,2025-04-30_21h18.33.942,1096.289599999994,m,,Time,238.09523809622803,1,0.7,SDMT1,1096.2894999999999,1094.366699999988,,048844,1,Win32,,,2023.2.3,,19,,1092.4585,,1097.287299999982,55,0.9,1083.4000000059605,1091.455,048844,1094.366799999982,1093.3645,1094.866799999982,,001,1094.866799999982,28,2025-04-30_21h14.19.501,,,1093.866599999994,,1
﻿Serial_Dependence_U,,1100.293199999988,1099.792699999988,1,97,001,,3,1097.2875,,2025-04-30_21h18.33.942,1103.002099999994,m,,Time,238.09523809622803,1,0.3,SDMT1,1103.002,1100.791,,048844,1,Win32,,,2023.2.3,,19,,1098.291299999982,,1103.999399999976,56,1.5,1429.199999988079,1097.287399999976,048844,1100.791099999994,1099.7925999999939,1101.291399999976,,001,1101.291399999976,25,2025-04-30_21h14.19.501,,,1100.293099999994,,2
﻿Serial_Dependence_U,,1106.7099999999998,1106.205099999994,1,168,001,,3,1103.999699999988,,2025-04-30_21h18.33.942,1109.754,m,,Time,238.09523809622803,1,0.7,SDMT1,1109.753899999976,1107.208099999994,,048844,1,Win32,,,2023.2.3,,19,,1105.0014999999999,,1110.7535999999939,57,1.2,1253,1103.999699999988,048844,1107.208099999994,1106.205,1107.7079999999999,,001,1107.707899999976,31,2025-04-30_21h14.19.501,,,1106.709899999976,,3
﻿Serial_Dependence_U,,1113.566399999976,1113.062,1,135,001,,3,1110.754,,2025-04-30_21h18.33.942,1116.2745,m,,Time,238.09523809622803,1,0.7,SDMT1,1116.274299999982,1114.0669999999998,,048844,1,Win32,,,2023.2.3,,19,,1111.757699999988,,1117.2743999999761,58,1.3,1254.7999999821186,1110.753899999976,048844,1114.0669999999998,1113.062,1114.567599999994,,001,1114.567599999994,14,2025-04-30_21h14.19.501,,,1113.566399999976,,4
﻿Serial_Dependence_U,,1120.184799999982,1119.682599999994,1,151,001,,3,1117.274699999988,,2025-04-30_21h18.33.942,1123.036599999994,m,,Time,238.09523809622803,1,0.3,SDMT1,1123.036599999994,1120.686,,048844,1,Win32,,,2023.2.3,,19,,1118.2785,,1124.036399999976,59,1.4,1383.6000000238419,1117.2745999999938,048844,1120.686,1119.682599999994,1121.1841999999879,,001,1121.1841999999879,6,2025-04-30_21h14.19.501,,,1120.184699999988,,5
﻿Serial_Dependence_U,,1126.7466999999879,1126.2463999999761,1,253,001,,4,1124.036699999988,,2025-04-30_21h18.33.942,1129.521699999988,m,,Time,238.09523809622803,1,0.3,SDMT1,1129.521599999994,1127.2444999999998,,048844,1,Win32,,,2023.2.3,,19,,1125.043899999976,,1130.519799999982,60,1.2,1412.300000011921,1124.036599999994,048844,1127.2444999999998,1126.246299999982,1127.743699999988,,001,1127.743699999988,4,2025-04-30_21h14.19.501,,,1126.7466999999879,,6
﻿Serial_Dependence_U,,1133.428199999988,1132.9238999999761,1,16,001,,2,1130.5204999999999,,2025-04-30_21h18.33.942,1135.829899999976,m,,Time,238.09523809622803,1,0.7,SDMT1,1135.829799999982,1133.928099999994,,048844,1,Win32,,,2023.2.3,,19,,1131.521699999988,,1136.8278999999761,61,1.4,1203.800000011921,1130.520299999982,048844,1133.928099999994,1132.9238999999761,1134.427899999976,,001,1134.427899999976,15,2025-04-30_21h14.19.501,,,1133.428199999988,,7
﻿Serial_Dependence_U,,1139.629799999982,1139.127899999976,1,21,001,,2,1136.828399999976,,2025-04-30_21h18.33.942,1142.6254999999999,m,,Time,238.09523809622803,1,0.3,SDMT1,1142.625299999982,1140.127699999988,,048844,1,Win32,,,2023.2.3,,19,,1137.8236999999879,,1143.623699999988,62,1.3,1180.5999999940395,1136.8281999999879,048844,1140.127799999982,1139.127799999982,1140.627899999976,,001,1140.627899999976,23,2025-04-30_21h14.19.501,,,1139.629699999988,,8
﻿Serial_Dependence_U,,1146.234099999994,1145.7334999999998,1,50,001,,4,1143.6240999999939,,2025-04-30_21h18.33.942,1149.3004999999998,m,,Time,238.09523809622803,1,0.3,SDMT1,1149.300399999976,1146.7359999999999,,048844,1,Win32,,,2023.2.3,,19,,1144.6295999999938,,1150.298599999994,63,1.1,1350.199999988079,1143.623899999976,048844,1146.7359999999999,1145.733399999976,1147.236199999988,,001,1147.236199999988,3,2025-04-30_21h14.19.501,,,1146.234099999994,,9
﻿Serial_Dependence_U,,1153.206699999988,1152.704399999976,1,2,001,,4,1150.2990999999938,,2025-04-30_21h18.33.942,1156.260599999994,m,,Time,238.09523809622803,1,0.3,SDMT1,1156.260599999994,1153.706399999976,,048844,1,Win32,,,2023.2.3,,19,,1151.300099999994,,1157.260599999994,64,1.4,1626.5,1150.2988999999761,048844,1153.7064999999998,1152.704299999982,1154.206799999982,,001,1154.206699999988,42,2025-04-30_21h14.19.501,,,1153.206699999988,,10
﻿Serial_Dependence_U,,1159.770699999988,1159.268899999976,1,265,001,,4,1157.261,,2025-04-30_21h18.33.942,1162.398199999988,m,,Time,238.09523809622803,1,0.3,SDMT1,1162.398099999994,1160.270699999988,,048844,1,Win32,,,2023.2.3,,19,,1158.267299999982,,1163.397899999976,65,1,1191.5999999940395,1157.260799999982,048844,1160.270699999988,1159.268799999982,1160.770699999988,,001,1160.770699999988,38,2025-04-30_21h14.19.501,,,1159.770699999988,,11
﻿Serial_Dependence_U,,1166.0085,1165.506399999976,1,65,001,,2,1163.398399999976,,2025-04-30_21h18.33.942,1168.441399999976,m,,Time,238.09523809622803,1,0.7,SDMT1,1168.441299999982,1166.507699999988,,048844,1,Win32,,,2023.2.3,,19,,1164.404,,1169.439599999994,66,1.1,968.4000000059605,1163.398199999988,048844,1166.507699999988,1165.506399999976,1167.007899999976,,001,1167.007899999976,30,2025-04-30_21h14.19.501,,,1166.008399999976,,12
﻿Serial_Dependence_U,,1172.543699999988,1172.041299999982,1,177,001,,4,1169.440199999988,,2025-04-30_21h18.33.942,1175.541199999988,m,,Time,238.09523809622803,1,0.3,SDMT1,1175.541099999994,1173.043799999982,,048844,1,Win32,,,2023.2.3,,19,,1170.4396999999879,,1176.541199999988,67,1.6,1795.2999999821186,1169.439899999976,048844,1173.043799999982,1172.041199999988,1173.5435,,001,1173.5435,26,2025-04-30_21h14.19.501,,,1172.5435999999938,,13
﻿Serial_Dependence_U,,1179.249399999976,1178.747699999988,1,286,001,,2,1176.5414999999998,,2025-04-30_21h18.33.942,1181.797399999976,m,,Time,238.09523809622803,1,0.7,SDMT1,1181.797299999982,1179.747899999976,,048844,1,Win32,,,2023.2.3,,19,,1177.543699999988,,1182.7975,68,1.2,1110.300000011921,1176.5414999999998,048844,1179.7479999999998,1178.747699999988,1180.247699999988,,001,1180.247599999994,13,2025-04-30_21h14.19.501,,,1179.249399999976,,14
﻿Serial_Dependence_U,,1185.305799999982,1184.802399999976,1,308,001,,5,1182.7978999999762,,2025-04-30_21h18.33.942,1189.5639999999999,m,,Time,238.09523809622803,1,0.7,SDMT1,1189.563899999976,1185.806799999982,,048844,1,Win32,,,2023.2.3,,19,,1183.8014999999998,,1190.564299999982,69,1,1540.800000011921,1182.7978999999762,048844,1185.806899999976,1184.802399999976,1186.305799999982,,001,1186.305799999982,47,2025-04-30_21h14.19.501,,,1185.305799999982,,15
﻿Serial_Dependence_U,,1193.176699999988,1192.673699999988,1,294,001,,3,1190.564799999982,,2025-04-30_21h18.33.942,1195.857599999994,m,,Time,238.09523809622803,1,0.3,SDMT1,1195.8574999999998,1193.6764999999998,,048844,1,Win32,,,2023.2.3,,19,,1191.566599999994,,1196.8568999999761,70,1.1,1135.699999988079,1190.5646999999879,048844,1193.6765999999939,1192.673699999988,1194.1764999999998,,001,1194.176399999976,21,2025-04-30_21h14.19.501,,,1193.176699999988,,16
﻿Serial_Dependence_U,,1199.961799999982,1199.461299999982,1,249,001,,3,1196.857,,2025-04-30_21h18.33.942,1203.1785,m,,Time,238.09523809622803,1,0.7,SDMT1,1203.1783999999761,1200.459799999982,,048844,1,Win32,,,2023.2.3,,19,,1197.860299999982,,1204.176199999988,71,1.6,1537.300000011921,1196.857,048844,1200.459799999982,1199.461199999988,1200.959599999994,,001,1200.9595,35,2025-04-30_21h14.19.501,,,1199.961699999988,,17
﻿Serial_Dependence_U,,1207.2856999999879,1206.780399999976,1,269,001,,2,1204.176799999982,,2025-04-30_21h18.33.942,1210.555099999994,m,,Time,238.09523809622803,1,0.7,SDMT1,1210.5549999999998,1207.7801999999879,,048844,1,Win32,,,2023.2.3,,19,,1205.1764999999998,,1211.552199999988,72,1.6,1424.699999988079,1204.1765999999939,048844,1207.7801999999879,1206.780399999976,1208.280299999982,,001,1208.2801999999879,53,2025-04-30_21h14.19.501,,,1207.285599999994,,18
﻿Serial_Dependence_U,,1213.865199999988,1213.359399999976,1,305,001,,4,1211.5525999999938,,2025-04-30_21h18.33.942,1216.158899999976,m,,Time,238.09523809622803,1,0.7,SDMT1,1216.158899999976,1214.363099999994,,048844,1,Win32,,,2023.2.3,,19,,1212.554799999982,,1217.159099999994,73,0.8,855.9000000059605,1211.5524999999998,048844,1214.363099999994,1213.359399999976,1214.8626999999879,,001,1214.8626999999879,45,2025-04-30_21h14.19.501,,,1213.8650999999938,,19
﻿Serial_Dependence_U,,1219.469199999988,1218.9645999999939,1,2,001,,4,1217.1593999999761,,2025-04-30_21h18.33.942,1221.9669999999999,m,,Time,238.09523809622803,1,0.3,SDMT1,1221.966899999976,1219.967099999994,,048844,1,Win32,,,2023.2.3,,19,,1218.1629999999998,,1222.967299999982,74,0.8,983.5,1217.159299999982,048844,1219.967099999994,1218.9645999999939,1220.467199999988,,001,1220.467199999988,36,2025-04-30_21h14.19.501,,,1219.469199999988,,20
﻿Serial_Dependence_U,,1225.377299999982,1224.8730999999939,1,191,001,,2,1222.967899999976,,2025-04-30_21h18.33.942,1227.685699999988,m,,Time,238.09523809622803,1,0.3,SDMT1,1227.6855999999939,1225.876699999988,,048844,1,Win32,,,2023.2.3,,19,,1223.967299999982,,1228.683699999988,75,0.9,779.3000000119209,1222.967599999994,048844,1225.876799999982,1224.8729999999998,1226.376699999988,,001,1226.376699999988,19,2025-04-30_21h14.19.501,,,1225.377299999982,,21
﻿Serial_Dependence_U,,1231.191699999988,1230.687899999976,1,4,001,,4,1228.684299999982,,2025-04-30_21h18.33.942,1233.975,m,,Time,238.09523809622803,1,0.7,SDMT1,1233.975,1231.691699999988,,048844,1,Win32,,,2023.2.3,,19,,1229.684399999976,,1234.974899999976,76,1,1104.2999999821186,1228.684099999994,048844,1231.691699999988,1230.687799999982,1232.191699999988,,001,1232.191699999988,11,2025-04-30_21h14.19.501,,,1231.191599999994,,22
﻿Serial_Dependence_U,,1237.285399999976,1236.779,1,247,001,,3,1234.975299999982,,2025-04-30_21h18.33.942,1239.4105,m,,Time,238.09523809622803,1,0.7,SDMT1,1239.410299999982,1237.7833999999762,,048844,1,Win32,,,2023.2.3,,19,,1235.9769999999999,,1240.4083999999762,77,0.8,787.4000000059605,1234.975199999988,048844,1237.7833999999762,1236.779,1238.2846999999879,,001,1238.2846999999879,27,2025-04-30_21h14.19.501,,,1237.285399999976,,23
﻿Serial_Dependence_U,,1242.920899999976,1242.4185999999938,1,322,001,,3,1240.4089999999999,,2025-04-30_21h18.33.942,1245.133299999982,m,,Time,238.09523809622803,1,0.3,SDMT1,1245.133199999988,1243.420399999976,,048844,1,Win32,,,2023.2.3,,19,,1241.4125,,1246.134399999976,78,1,950.5,1240.408799999982,048844,1243.420399999976,1242.4185,1243.920899999976,,001,1243.920899999976,20,2025-04-30_21h14.19.501,,,1242.920899999976,,24
﻿Serial_Dependence_U,,1248.8429999999998,1248.3415999999938,1,267,001,,2,1246.134599999994,,2025-04-30_21h18.33.942,1251.362099999994,m,,Time,238.09523809622803,1,0.7,SDMT1,1251.3619999999999,1249.3415999999938,,048844,1,Win32,,,2023.2.3,,19,,1247.1374999999998,,1252.3615999999938,79,1.2,1124.0999999940395,1246.134599999994,048844,1249.3415999999938,1248.3415,1249.8415999999938,,001,1249.8415999999938,49,2025-04-30_21h14.19.501,,,1248.8429999999998,,25
﻿Serial_Dependence_U,,1254.770699999988,1254.2666999999878,1,131,001,,4,1252.361899999976,,2025-04-30_21h18.33.942,1257.2089999999998,m,,Time,238.09523809622803,1,0.3,SDMT1,1257.208899999976,1255.2704999999999,,048844,1,Win32,,,2023.2.3,,19,,1253.3661999999879,,1258.205299999982,80,0.9,1023.4000000059605,1252.361899999976,048844,1255.2704999999999,1254.2666999999878,1255.7704999999999,,001,1255.7704999999999,1,2025-04-30_21h14.19.501,,,1254.770699999988,,26
﻿Serial_Dependence_U,,1260.517299999982,1260.012199999988,1,350,001,,4,1258.2055999999939,,2025-04-30_21h18.33.942,1262.8494999999998,m,,Time,238.09523809622803,1,0.7,SDMT1,1262.849399999976,1261.016399999976,,048844,1,Win32,,,2023.2.3,,19,,1259.207899999976,,1263.849,81,0.8,866.7000000178814,1258.2055999999939,048844,1261.0165,1260.012099999994,1261.516199999988,,001,1261.516199999988,9,2025-04-30_21h14.19.501,,,1260.517299999982,,27
﻿Serial_Dependence_U,,1266.161899999976,1265.660099999994,1,233,001,,2,1263.849199999988,,2025-04-30_21h18.33.942,1268.315799999982,m,,Time,238.09523809622803,1,0.3,SDMT1,1268.315699999988,1266.661799999982,,048844,1,Win32,,,2023.2.3,,19,,1264.856299999982,,1269.315699999988,82,0.8,755.8000000119209,1263.849199999988,048844,1266.661799999982,1265.6599999999999,1267.161799999982,,001,1267.161799999982,0,2025-04-30_21h14.19.501,,,1266.161799999982,,28
﻿Serial_Dependence_U,,1272.425699999988,1271.9244999999999,1,56,001,,3,1269.3159999999998,,2025-04-30_21h18.33.942,1275.485099999994,m,,Time,238.09523809622803,1,0.7,SDMT1,1275.485,1272.924,,048844,1,Win32,,,2023.2.3,,19,,1270.32,,1276.482299999982,83,1.6,1630.0999999940395,1269.3159999999998,048844,1272.924,1271.924399999976,1273.4240999999938,,001,1273.4240999999938,17,2025-04-30_21h14.19.501,,,1272.425699999988,,29
﻿Serial_Dependence_U,,1278.890799999982,1278.3903999999761,1,304,001,,3,1276.482699999988,,2025-04-30_21h18.33.942,1281.224699999988,m,,Time,238.09523809622803,1,0.7,SDMT1,1281.2245999999939,1279.3905999999938,,048844,1,Win32,,,2023.2.3,,19,,1277.488099999994,,1282.223799999982,84,0.9,879.6999999880791,1276.482599999994,048844,1279.3905999999938,1278.390299999982,1279.890799999982,,001,1279.890799999982,46,2025-04-30_21h14.19.501,,,1278.8906999999879,,30
﻿Serial_Dependence_U,,1284.531699999988,1284.029799999982,1,252,001,,4,1282.224299999982,,2025-04-30_21h18.33.942,1286.7504999999999,m,,Time,238.09523809622803,1,0.3,SDMT1,1286.7504999999999,1285.032099999994,,048844,1,Win32,,,2023.2.3,,19,,1283.228099999994,,1287.749699999988,85,0.8,872.5,1282.224099999994,048844,1285.032199999988,1284.029799999982,1285.532199999988,,001,1285.532199999988,18,2025-04-30_21h14.19.501,,,1284.531599999994,,31
﻿Serial_Dependence_U,,1290.2566999999879,1289.755099999994,1,197,001,,3,1287.7499999999998,,2025-04-30_21h18.33.942,1292.633699999988,m,,Time,238.09523809622803,1,0.3,SDMT1,1292.633599999994,1290.756799999982,,048844,1,Win32,,,2023.2.3,,19,,1288.752599999994,,1293.6316999999879,86,1,1021.0999999940395,1287.7498999999762,048844,1290.756799999982,1289.7549999999999,1291.2566999999879,,001,1291.2566999999879,2,2025-04-30_21h14.19.501,,,1290.2566999999879,,32
﻿Serial_Dependence_U,,1296.638099999994,1296.137199999988,1,260,001,,3,1293.632099999994,,2025-04-30_21h18.33.942,1299.758299999982,m,,Time,238.09523809622803,1,0.3,SDMT1,1299.758199999988,1297.136099999994,,048844,1,Win32,,,2023.2.3,,19,,1294.636,,1300.757799999982,87,1.5,1562.300000011921,1293.6319999999998,048844,1297.136099999994,1296.137199999988,1297.635799999982,,001,1297.635699999988,43,2025-04-30_21h14.19.501,,,1296.638,,33
﻿Serial_Dependence_U,,1303.766799999982,1303.262,1,63,001,,2,1300.7580999999939,,2025-04-30_21h18.33.942,1306.653799999982,m,,Time,238.09523809622803,1,0.7,SDMT1,1306.653699999988,1304.264699999988,,048844,1,Win32,,,2023.2.3,,19,,1301.760599999994,,1307.653199999988,88,1.5,1341.300000011921,1300.7579999999998,048844,1304.264799999982,1303.262,1304.764799999982,,001,1304.764799999982,16,2025-04-30_21h14.19.501,,,1303.7666999999878,,34
﻿Serial_Dependence_U,,1310.6605,1310.158299999982,1,67,001,,4,1307.653399999976,,2025-04-30_21h18.33.942,1313.6350999999938,m,,Time,238.09523809622803,1,0.3,SDMT1,1313.6350999999938,1311.160199999988,,048844,1,Win32,,,2023.2.3,,19,,1308.6538999999761,,1314.632599999994,89,1.5,1631.9000000059605,1307.653299999982,048844,1311.160199999988,1310.158299999982,1311.660399999976,,001,1311.660399999976,7,2025-04-30_21h14.19.501,,,1310.6605,,35
﻿Serial_Dependence_U,,1317.7365999999938,1317.232899999976,1,146,001,,1,1314.632899999976,,2025-04-30_21h18.33.942,1320.666299999982,m,,Time,238.09523809622803,1,0.3,SDMT1,1320.666299999982,1318.235199999988,,048844,1,Win32,,,2023.2.3,,19,,1315.6309999999999,,1321.664299999982,90,1.6,1101.800000011921,1314.632899999976,048844,1318.235199999988,1317.232899999976,1318.735199999988,,001,1318.735199999988,44,2025-04-30_21h14.19.501,,,1317.7365,,36
﻿Serial_Dependence_U,,1324.4745999999939,1323.972599999994,1,205,001,,5,1321.664799999982,,2025-04-30_21h18.33.942,1327.797399999976,m,,Time,238.09523809622803,1,0.7,SDMT1,1327.797299999982,1324.9724999999999,,048844,1,Win32,,,2023.2.3,,19,,1322.6683999999761,,1328.797299999982,91,1.3,1904.699999988079,1321.664599999994,048844,1324.9724999999999,1323.9724999999999,1325.472399999976,,001,1325.472399999976,32,2025-04-30_21h14.19.501,,,1324.4744999999998,,37
﻿Serial_Dependence_U,,1331.6104999999998,1331.1074999999998,1,169,001,,2,1328.797699999988,,2025-04-30_21h18.33.942,1334.035799999982,m,,Time,238.09523809622803,1,0.3,SDMT1,1334.0356999999879,1332.1095999999939,,048844,1,Win32,,,2023.2.3,,19,,1329.803299999982,,1335.0345,92,1.3,1110.300000011921,1328.7975,048844,1332.1095999999939,1331.1074999999998,1332.6095999999939,,001,1332.6095999999939,5,2025-04-30_21h14.19.501,,,1331.6104999999998,,38
﻿Serial_Dependence_U,,1337.940599999994,1337.436299999982,1,39,001,,2,1335.034799999982,,2025-04-30_21h18.33.942,1340.5778999999761,m,,Time,238.09523809622803,1,0.3,SDMT1,1340.577799999982,1338.4383999999761,,048844,1,Win32,,,2023.2.3,,19,,1336.0345,,1341.577599999994,93,1.4,1284.800000011921,1335.0346999999879,048844,1338.4383999999761,1337.436099999994,1338.9385,,001,1338.9385,24,2025-04-30_21h14.19.501,,,1337.940599999994,,39
﻿Serial_Dependence_U,,1344.190699999988,1343.689199999988,1,348,001,,4,1341.5778999999761,,2025-04-30_21h18.33.942,1346.734299999982,m,,Time,238.09523809622803,1,0.7,SDMT1,1346.734199999988,1344.6886999999879,,048844,1,Win32,,,2023.2.3,,19,,1342.582299999982,,1347.734,94,1.1,1194.800000011921,1341.577799999982,048844,1344.6886999999879,1343.689099999994,1345.185799999982,,001,1345.185799999982,12,2025-04-30_21h14.19.501,,,1344.190599999994,,40
﻿Serial_Dependence_U,,1350.847599999994,1350.340099999994,1,33,001,,3,1347.734399999976,,2025-04-30_21h18.33.942,1354.585599999994,m,,Time,238.09523809622803,1,0.3,SDMT1,1354.585599999994,1351.346799999982,,048844,1,Win32,,,2023.2.3,,19,,1348.734299999982,,1355.5836999999879,95,1.6,1624.5999999940395,1347.734199999988,048844,1351.346799999982,1350.340099999994,1351.846599999994,,001,1351.846599999994,8,2025-04-30_21h14.19.501,,,1350.847599999994,,41
﻿Serial_Dependence_U,,1358.398899999976,1357.894299999982,1,288,001,,3,1355.584299999982,,2025-04-30_21h18.33.942,1361.5433999999761,m,,Time,238.09523809622803,1,0.7,SDMT1,1361.5433999999761,1358.896399999976,,048844,1,Win32,,,2023.2.3,,19,,1356.590099999994,,1362.541899999976,96,1.3,1353.300000011921,1355.584099999994,048844,1358.896399999976,1357.8940999999938,1359.396299999982,,001,1359.396299999982,50,2025-04-30_21h14.19.501,,,1358.398799999982,,42
﻿Serial_Dependence_U,,1365.452199999988,1364.947699999988,1,47,001,,2,1362.542099999994,,2025-04-30_21h18.33.942,1368.306599999994,m,,Time,238.09523809622803,1,0.7,SDMT1,1368.306599999994,1365.9520999999938,,048844,1,Win32,,,2023.2.3,,19,,1363.544199999988,,1369.304199999988,97,1.4,1233.2999999821186,1362.542099999994,048844,1365.9520999999938,1364.947699999988,1366.4505,,001,1366.4505,33,2025-04-30_21h14.19.501,,,1365.452199999988,,43
﻿Serial_Dependence_U,,1372.0124999999998,1371.510299999982,1,344,001,,4,1369.3045,,2025-04-30_21h18.33.942,1374.704099999994,m,,Time,238.09523809622803,1,0.3,SDMT1,1374.704,1372.5124999999998,,048844,1,Win32,,,2023.2.3,,19,,1370.3060999999939,,1375.704399999976,98,1.2,1378.4000000059605,1369.3045,048844,1372.5124999999998,1371.510199999988,1373.01,,001,1373.01,22,2025-04-30_21h14.19.501,,,1372.012399999976,,44
﻿Serial_Dependence_U,,1378.208799999982,1377.708299999982,1,51,001,,3,1375.704699999988,,2025-04-30_21h18.33.942,1380.622699999988,m,,Time,238.09523809622803,1,0.7,SDMT1,1380.622599999994,1378.706199999988,,048844,1,Win32,,,2023.2.3,,19,,1376.7044999999998,,1381.6205,99,1,978.5,1375.704699999988,048844,1378.706299999982,1377.708299999982,1379.206299999982,,001,1379.206299999982,29,2025-04-30_21h14.19.501,,,1378.2086999999879,,45
﻿Serial_Dependence_U,,1384.2266999999879,1383.724799999982,1,314,001,,4,1381.620699999988,,2025-04-30_21h18.33.942,1386.789299999982,m,,Time,238.09523809622803,1,0.7,SDMT1,1386.7891999999879,1384.724699999988,,048844,1,Win32,,,2023.2.3,,19,,1382.621099999994,,1387.7888999999761,100,1.1,1233,1381.6205999999938,048844,1384.724699999988,1383.724799999982,1385.221599999994,,001,1385.2214999999999,48,2025-04-30_21h14.19.501,,,1384.2266999999879,,46
﻿Serial_Dependence_U,,1390.1955999999939,1389.691599999994,1,220,001,,4,1387.7890999999938,,2025-04-30_21h18.33.942,1392.4679999999998,m,,Time,238.09523809622803,1,0.7,SDMT1,1392.467899999976,1390.692799999982,,048844,1,Win32,,,2023.2.3,,19,,1388.7891999999879,,1393.465199999988,101,0.9,991.9000000059605,1387.789,048844,1390.692799999982,1389.6915,1391.192699999988,,001,1391.192699999988,10,2025-04-30_21h14.19.501,,,1390.1955999999939,,47
﻿Serial_Dependence_U,,1396.374299999982,1395.872099999994,1,76,001,,4,1393.4655999999939,,2025-04-30_21h18.33.942,1399.692799999982,m,,Time,238.09523809622803,1,0.7,SDMT1,1399.692799999982,1396.871799999982,,048844,1,Win32,,,2023.2.3,,19,,1394.468299999982,,1400.692299999982,102,1.4,1566.2000000178814,1393.4654999999998,048844,1396.871799999982,1395.8719999999998,1397.370299999982,,001,1397.370199999988,51,2025-04-30_21h14.19.501,,,1396.374199999988,,48
﻿Serial_Dependence_U,,1403.1015,1402.5995999999939,1,277,001,,5,1400.6924999999999,,2025-04-30_21h18.33.942,1405.790799999982,m,,Time,238.09523809622803,1,0.3,SDMT1,1405.790799999982,1403.5994999999998,,048844,1,Win32,,,2023.2.3,,19,,1401.6955999999939,,1406.790899999976,103,0.9,1303.699999988079,1400.692399999976,048844,1403.5994999999998,1402.5995999999939,1404.099399999976,,001,1404.099399999976,37,2025-04-30_21h14.19.501,,,1403.1015,,49
﻿Serial_Dependence_U,,1409.7994999999999,1409.296899999976,1,281,001,,2,1406.791199999988,,2025-04-30_21h18.33.942,1412.501399999976,m,,Time,238.09523809622803,1,0.7,SDMT1,1412.501299999982,1410.2991999999879,,048844,1,Win32,,,2023.2.3,,19,,1407.794799999982,,1413.5004999999999,104,1.5,1350.4000000059605,1406.791099999994,048844,1410.2991999999879,1409.296899999976,1410.7991999999879,,001,1410.7991999999879,34,2025-04-30_21h14.19.501,,,1409.799399999976,,50
﻿Serial_Dependence_U,,1416.3091999999879,1415.804799999982,1,39,001,,2,1413.500699999988,,2025-04-30_21h18.33.942,1418.717299999982,m,,Time,238.09523809622803,1,0.3,SDMT1,1418.717299999982,1416.8084999999999,,048844,1,Win32,,,2023.2.3,,19,,1414.501,,1419.7155999999939,105,1.3,1152.4000000059605,1413.500599999994,048844,1416.8084999999999,1415.804799999982,1417.309,,001,1417.309,41,2025-04-30_21h14.19.501,,,1416.309099999994,,51
﻿Serial_Dependence_U,,1422.3255,1421.821799999982,1,212,001,,4,1419.716099999994,,2025-04-30_21h18.33.942,1424.971399999976,m,,Time,238.09523809622803,1,0.3,SDMT1,1424.971299999982,1422.824299999982,,048844,1,Win32,,,2023.2.3,,19,,1420.7154999999998,,1425.969299999982,106,1.1,1336.4000000059605,1419.715899999976,048844,1422.824299999982,1421.821699999988,1423.324399999976,,001,1423.324399999976,39,2025-04-30_21h14.19.501,,,1422.3255,,52
﻿Serial_Dependence_U,,1428.984199999988,1428.479199999988,1,182,001,,3,1425.969599999994,,2025-04-30_21h18.33.942,1431.84,m,,Time,238.09523809622803,1,0.7,SDMT1,1431.839899999976,1429.4821999999879,,048844,1,Win32,,,2023.2.3,,19,,1426.974099999994,,1432.840299999982,107,1.5,1538.2000000178814,1425.969599999994,048844,1429.4821999999879,1428.4790999999939,1429.981699999988,,001,1429.981699999988,52,2025-04-30_21h14.19.501,,,1428.984199999988,,53
﻿Serial_Dependence_U,66.99590000000603,1502.655099999994,1502.1525,2,82,001,,3,1499.846399999976,,2025-04-30_21h18.33.942,1505.342299999982,m,,Time,238.09523809622803,1,0.7,SDMT1,1505.342299999982,1503.154799999982,,048844,2,Win32,,,2023.2.3,,19,,1500.848399999976,,1506.341899999976,108,1.3,1316.199999988079,1432.8405999999939,048844,1503.154799999982,1502.152399999976,1503.654699999988,,001,1503.654599999994,50,2025-04-30_21h14.19.501,,,1502.655,s,0
﻿Serial_Dependence_U,,1509.043699999988,1508.543199999988,2,11,001,,4,1506.342599999994,,2025-04-30_21h18.33.942,1511.6285999999939,m,,Time,238.09523809622803,1,0.3,SDMT1,1511.6284999999998,1509.541799999982,,048844,2,Win32,,,2023.2.3,,19,,1507.342199999988,,1512.625399999976,109,1.2,1324.199999988079,1506.3419999999999,048844,1509.541799999982,1508.543199999988,1510.042,,001,1510.042,40,2025-04-30_21h14.19.501,,,1509.0435999999938,,1
﻿Serial_Dependence_U,,1515.4355999999939,1514.933599999994,2,112,001,,2,1512.625799999982,,2025-04-30_21h18.33.942,1517.851199999988,m,,Time,238.09523809622803,1,0.3,SDMT1,1517.851099999994,1515.933599999994,,048844,2,Win32,,,2023.2.3,,19,,1513.629799999982,,1518.850299999982,110,1.3,1094.199999988079,1512.625599999994,048844,1515.933599999994,1514.9334999999999,1516.433699999988,,001,1516.433699999988,41,2025-04-30_21h14.19.501,,,1515.4355999999939,,2
﻿Serial_Dependence_U,,1521.9631999999879,1521.4600999999939,2,64,001,,3,1518.8504999999998,,2025-04-30_21h18.33.942,1524.837299999982,m,,Time,238.09523809622803,1,0.7,SDMT1,1524.837299999982,1522.462399999976,,048844,2,Win32,,,2023.2.3,,19,,1519.856199999988,,1525.837599999994,111,1.6,1603.9000000059605,1518.8504999999998,048844,1522.462399999976,1521.4600999999939,1522.962399999976,,001,1522.962399999976,35,2025-04-30_21h14.19.501,,,1521.963099999994,,3
﻿Serial_Dependence_U,,1528.247199999988,1527.7434999999998,2,31,001,,4,1525.838,,2025-04-30_21h18.33.942,1530.4518999999761,m,,Time,238.09523809622803,1,0.7,SDMT1,1530.451799999982,1528.7455999999938,,048844,2,Win32,,,2023.2.3,,19,,1526.838,,1531.449899999976,112,0.9,947.5999999940395,1525.8378999999761,048844,1528.745699999988,1527.7434999999998,1529.245699999988,,001,1529.245699999988,46,2025-04-30_21h14.19.501,,,1528.247199999988,,4
﻿Serial_Dependence_U,,1533.960199999988,1533.458399999976,2,68,001,,4,1531.450299999982,,2025-04-30_21h18.33.942,1536.486799999982,m,,Time,238.09523809622803,1,0.7,SDMT1,1536.486799999982,1534.458199999988,,048844,2,Win32,,,2023.2.3,,19,,1532.454,,1537.487099999994,113,1,1264.5999999940395,1531.450199999988,048844,1534.458199999988,1533.458299999982,1534.958099999994,,001,1534.9579999999999,11,2025-04-30_21h14.19.501,,,1533.9600999999939,,5
﻿Serial_Dependence_U,,1539.793299999982,1539.291099999994,2,348,001,,4,1537.4875,,2025-04-30_21h18.33.942,1541.931599999994,m,,Time,238.09523809622803,1,0.7,SDMT1,1541.9315,1540.291299999982,,048844,2,Win32,,,2023.2.3,,19,,1538.4889999999998,,1542.9286999999879,114,0.8,859.1999999880791,1537.487399999976,048844,1540.291299999982,1539.291099999994,1540.790899999976,,001,1540.790899999976,9,2025-04-30_21h14.19.501,,,1539.793099999994,,6
﻿Serial_Dependence_U,,1545.8368999999761,1545.334599999994,2,211,001,,2,1542.929199999988,,2025-04-30_21h18.33.942,1548.3740999999939,m,,Time,238.09523809622803,1,0.7,SDMT1,1548.3739999999998,1546.336599999994,,048844,2,Win32,,,2023.2.3,,19,,1543.9328999999761,,1549.3740999999939,115,1.4,1195.800000011921,1542.9289999999999,048844,1546.336599999994,1545.3345,1546.837199999988,,001,1546.8370999999938,51,2025-04-30_21h14.19.501,,,1545.836799999982,,7
﻿Serial_Dependence_U,,1551.8839999999998,1551.380099999994,2,179,001,,2,1549.374399999976,,2025-04-30_21h18.33.942,1554.761899999976,m,,Time,238.09523809622803,1,0.3,SDMT1,1554.761799999982,1552.384199999988,,048844,2,Win32,,,2023.2.3,,19,,1550.378399999976,,1555.761599999994,116,1,855.5999999940395,1549.374299999982,048844,1552.384299999982,1551.3799999999999,1552.883899999976,,001,1552.883899999976,20,2025-04-30_21h14.19.501,,,1551.8839999999998,,8
﻿Serial_Dependence_U,,1558.7735999999938,1558.271699999988,2,305,001,,2,1555.762,,2025-04-30_21h18.33.942,1561.592899999976,m,,Time,238.09523809622803,1,0.3,SDMT1,1561.592799999982,1559.274099999994,,048844,2,Win32,,,2023.2.3,,19,,1556.767599999994,,1562.590699999988,117,1.5,1179.1000000238419,1555.761899999976,048844,1559.274099999994,1558.271599999994,1559.773799999982,,001,1559.773799999982,25,2025-04-30_21h14.19.501,,,1558.7735999999938,,9
﻿Serial_Dependence_U,,1565.3999999999999,1564.898199999988,2,275,001,,2,1562.591199999988,,2025-04-30_21h18.33.942,1567.965199999988,m,,Time,238.09523809622803,1,0.7,SDMT1,1567.965199999988,1565.898199999988,,048844,2,Win32,,,2023.2.3,,19,,1563.596399999976,,1568.965399999976,118,1.3,1138.699999988079,1562.591,048844,1565.898199999988,1564.898099999994,1566.399099999994,,001,1566.399099999994,14,2025-04-30_21h14.19.501,,,1565.399799999982,,10
﻿Serial_Dependence_U,,1571.375699999988,1570.873599999994,2,205,001,,4,1568.966099999994,,2025-04-30_21h18.33.942,1574.124699999988,m,,Time,238.09523809622803,1,0.3,SDMT1,1574.124699999988,1571.873699999988,,048844,2,Win32,,,2023.2.3,,19,,1569.971699999988,,1575.123599999994,119,0.9,1121.3999999761581,1568.965799999982,048844,1571.873699999988,1570.8735,1572.373699999988,,001,1572.373699999988,1,2025-04-30_21h14.19.501,,,1571.375599999994,,11
﻿Serial_Dependence_U,,1578.137799999982,1577.6358999999761,2,222,001,,2,1575.1239999999998,,2025-04-30_21h18.33.942,1580.791199999988,m,,Time,238.09523809622803,1,0.7,SDMT1,1580.791,1578.636,,048844,2,Win32,,,2023.2.3,,19,,1576.1294999999998,,1581.790099999994,120,1.5,1382.199999988079,1575.123799999982,048844,1578.636,1577.6358999999761,1579.135699999988,,001,1579.135699999988,34,2025-04-30_21h14.19.501,,,1578.137699999988,,12
﻿Serial_Dependence_U,,1584.495799999982,1583.991799999982,2,326,001,,4,1581.790599999994,,2025-04-30_21h18.33.942,1587.089799999982,m,,Time,238.09523809622803,1,0.3,SDMT1,1587.089799999982,1584.995299999982,,048844,2,Win32,,,2023.2.3,,19,,1582.7901999999879,,1588.089899999976,121,1.2,1279.800000011921,1581.790399999976,048844,1584.9953999999761,1583.991699999988,1585.4955,,001,1585.4955,4,2025-04-30_21h14.19.501,,,1584.495799999982,,13
﻿Serial_Dependence_U,,1590.3939999999998,1589.891899999976,2,110,001,,4,1588.090299999982,,2025-04-30_21h18.33.942,1592.581199999988,m,,Time,238.09523809622803,1,0.3,SDMT1,1592.581199999988,1590.8939999999998,,048844,2,Win32,,,2023.2.3,,19,,1589.090099999994,,1593.581299999982,122,0.8,935.3000000119209,1588.090199999988,048844,1590.8939999999998,1589.891899999976,1591.3939999999998,,001,1591.3939999999998,0,2025-04-30_21h14.19.501,,,1590.3939999999998,,14
﻿Serial_Dependence_U,,1595.991,1595.486799999982,2,211,001,,3,1593.581899999976,,2025-04-30_21h18.33.942,1598.141299999982,m,,Time,238.09523809622803,1,0.7,SDMT1,1598.141199999988,1596.4895,,048844,2,Win32,,,2023.2.3,,19,,1594.585699999988,,1599.1395999999938,123,0.9,870.9000000059605,1593.581699999988,048844,1596.489599999994,1595.486799999982,1596.9895,,001,1596.9895,28,2025-04-30_21h14.19.501,,,1595.991,,15
﻿Serial_Dependence_U,,1601.754099999994,1601.247699999988,2,194,001,,2,1599.140099999994,,2025-04-30_21h18.33.942,1603.907699999988,m,,Time,238.09523809622803,1,0.3,SDMT1,1603.907699999988,1602.253199999988,,048844,2,Win32,,,2023.2.3,,19,,1600.145399999976,,1604.906,124,1.1,819.1000000238419,1599.139899999976,048844,1602.253199999988,1601.247599999994,1602.752,,001,1602.752,21,2025-04-30_21h14.19.501,,,1601.754,,16
﻿Serial_Dependence_U,,1607.418899999976,1606.914599999994,2,118,001,,2,1604.906399999976,,2025-04-30_21h18.33.942,1609.5056999999879,m,,Time,238.09523809622803,1,0.7,SDMT1,1609.5055999999938,1607.9185,,048844,2,Win32,,,2023.2.3,,19,,1605.9105,,1610.505799999982,125,1,762.6999999880791,1604.906299999982,048844,1607.9185,1606.914399999976,1608.4183999999761,,001,1608.4183999999761,29,2025-04-30_21h14.19.501,,,1607.418699999988,,17
﻿Serial_Dependence_U,,1613.018399999976,1612.5143999999761,2,75,001,,4,1610.506199999988,,2025-04-30_21h18.33.942,1615.7846999999879,m,,Time,238.09523809622803,1,0.3,SDMT1,1615.7846999999879,1613.515899999976,,048844,2,Win32,,,2023.2.3,,19,,1611.5098999999761,,1616.784899999976,126,1,1233.9000000059605,1610.506099999994,048844,1613.515899999976,1612.514299999982,1614.014199999988,,001,1614.014199999988,2,2025-04-30_21h14.19.501,,,1613.018299999982,,18
﻿Serial_Dependence_U,,1619.8930999999939,1619.388899999976,2,4,001,,2,1616.785299999982,,2025-04-30_21h18.33.942,1622.4990999999939,m,,Time,238.09523809622803,1,0.7,SDMT1,1622.498899999976,1620.3930999999939,,048844,2,Win32,,,2023.2.3,,19,,1617.786699999988,,1623.4985,127,1.6,1232.0999999940395,1616.785199999988,048844,1620.3930999999939,1619.388799999982,1620.893199999988,,001,1620.893199999988,53,2025-04-30_21h14.19.501,,,1619.8930999999939,,19
﻿Serial_Dependence_U,,1626.605299999982,1626.103099999994,2,254,001,,2,1623.498799999982,,2025-04-30_21h18.33.942,1629.301699999988,m,,Time,238.09523809622803,1,0.7,SDMT1,1629.301699999988,1627.104899999976,,048844,2,Win32,,,2023.2.3,,19,,1624.5011999999879,,1630.301199999988,128,1.6,1352.800000011921,1623.498699999988,048844,1627.104899999976,1626.103099999994,1627.605599999994,,001,1627.6055,17,2025-04-30_21h14.19.501,,,1626.605199999988,,20
﻿Serial_Dependence_U,,1633.1094999999998,1632.605799999982,2,264,001,,3,1630.301699999988,,2025-04-30_21h18.33.942,1635.738699999988,m,,Time,238.09523809622803,1,0.3,SDMT1,1635.738599999994,1633.606599999994,,048844,2,Win32,,,2023.2.3,,19,,1631.305399999976,,1636.7385,129,1.3,1266,1630.3015999999939,048844,1633.606599999994,1632.605699999988,1634.106699999988,,001,1634.106599999994,5,2025-04-30_21h14.19.501,,,1633.1094999999998,,21
﻿Serial_Dependence_U,,1639.351199999988,1638.8468999999761,2,76,001,,4,1636.7389999999998,,2025-04-30_21h18.33.942,1642.294099999994,m,,Time,238.09523809622803,1,0.7,SDMT1,1642.2939999999999,1639.850799999982,,048844,2,Win32,,,2023.2.3,,19,,1637.742599999994,,1643.292099999994,130,1.1,1236.8999999761581,1636.738799999982,048844,1639.850799999982,1638.846799999982,1640.348599999994,,001,1640.3484999999998,12,2025-04-30_21h14.19.501,,,1639.351199999988,,22
﻿Serial_Dependence_U,,1646.005199999988,1645.5004999999999,2,257,001,,4,1643.292299999982,,2025-04-30_21h18.33.942,1648.850399999976,m,,Time,238.09523809622803,1,0.7,SDMT1,1648.850299999982,1646.504799999982,,048844,2,Win32,,,2023.2.3,,19,,1644.296399999976,,1649.8505999999938,131,1.2,1370.7000000178814,1643.292299999982,048844,1646.504799999982,1645.5004999999999,1647.004899999976,,001,1647.004899999976,49,2025-04-30_21h14.19.501,,,1646.005099999994,,23
﻿Serial_Dependence_U,,1652.562899999976,1652.058699999988,2,40,001,,3,1649.851099999994,,2025-04-30_21h18.33.942,1655.127399999976,m,,Time,238.09523809622803,1,0.7,SDMT1,1655.127299999982,1653.062799999982,,048844,2,Win32,,,2023.2.3,,19,,1650.854599999994,,1656.125199999988,132,1.2,1170.5,1649.850799999982,048844,1653.062799999982,1652.058599999994,1653.563099999994,,001,1653.5629999999999,13,2025-04-30_21h14.19.501,,,1652.562899999976,,24
﻿Serial_Dependence_U,,1659.229799999982,1658.729399999976,2,224,001,,3,1656.125599999994,,2025-04-30_21h18.33.942,1662.254799999982,m,,Time,238.09523809622803,1,0.3,SDMT1,1662.254699999988,1659.726799999982,,048844,2,Win32,,,2023.2.3,,19,,1657.126899999976,,1663.2544999999998,133,1.6,1563.300000011921,1656.125399999976,048844,1659.726799999982,1658.729399999976,1660.225199999988,,001,1660.225099999994,8,2025-04-30_21h14.19.501,,,1659.229699999988,,25
﻿Serial_Dependence_U,,1665.5669999999998,1665.062899999976,2,101,001,,4,1663.254899999976,,2025-04-30_21h18.33.942,1668.110199999988,m,,Time,238.09523809622803,1,0.7,SDMT1,1668.110099999994,1666.066799999982,,048844,2,Win32,,,2023.2.3,,19,,1664.258899999976,,1669.1085999999939,134,0.8,1020.5,1663.254799999982,048844,1666.066799999982,1665.062799999982,1666.566799999982,,001,1666.566799999982,27,2025-04-30_21h14.19.501,,,1665.566899999976,,26
﻿Serial_Dependence_U,,1672.221599999994,1671.7165999999938,2,61,001,,3,1669.109099999994,,2025-04-30_21h18.33.942,1675.164299999982,m,,Time,238.09523809622803,1,0.3,SDMT1,1675.1641999999879,1672.720399999976,,048844,2,Win32,,,2023.2.3,,19,,1670.114599999994,,1676.162599999994,135,1.6,1543.4000000059605,1669.109,048844,1672.720399999976,1671.7165999999938,1673.220799999982,,001,1673.220699999988,26,2025-04-30_21h14.19.501,,,1672.2214999999999,,27
﻿Serial_Dependence_U,,1679.175,1678.6709999999998,2,246,001,,2,1676.163199999988,,2025-04-30_21h18.33.942,1681.860799999982,m,,Time,238.09523809622803,1,0.3,SDMT1,1681.860699999988,1679.674399999976,,048844,2,Win32,,,2023.2.3,,19,,1677.168799999982,,1682.857699999988,136,1.5,1180,1676.1629999999998,048844,1679.6744999999999,1678.670899999976,1680.174799999982,,001,1680.174799999982,43,2025-04-30_21h14.19.501,,,1679.174899999976,,28
﻿Serial_Dependence_U,,1685.466699999988,1684.962199999988,2,23,001,,3,1682.858199999988,,2025-04-30_21h18.33.942,1687.8595999999939,m,,Time,238.09523809622803,1,0.7,SDMT1,1687.8594999999998,1685.9676999999879,,048844,2,Win32,,,2023.2.3,,19,,1683.857799999982,,1688.857899999976,137,1.1,1095.4000000059605,1682.857899999976,048844,1685.967799999982,1684.962199999988,1686.4676999999879,,001,1686.4676999999879,30,2025-04-30_21h14.19.501,,,1685.4665999999938,,29
﻿Serial_Dependence_U,,1691.5678999999761,1691.061899999976,2,83,001,,4,1688.858199999988,,2025-04-30_21h18.33.942,1694.449599999994,m,,Time,238.09523809622803,1,0.3,SDMT1,1694.449399999976,1692.065799999982,,048844,2,Win32,,,2023.2.3,,19,,1689.859699999988,,1695.451799999982,138,1.2,1293.7999999821186,1688.858099999994,048844,1692.065799999982,1691.061899999976,1692.5659999999998,,001,1692.5659999999998,22,2025-04-30_21h14.19.501,,,1691.5678999999761,,30
﻿Serial_Dependence_U,,1698.361899999976,1697.858199999988,2,181,001,,2,1695.4534999999998,,2025-04-30_21h18.33.942,1700.932199999988,m,,Time,238.09523809622803,1,0.3,SDMT1,1700.932199999988,1698.8613999999761,,048844,2,Win32,,,2023.2.3,,19,,1696.455199999988,,1701.929199999988,139,1.4,1191.4000000059605,1695.4520999999938,048844,1698.8615,1697.858199999988,1699.3616999999879,,001,1699.3616999999879,42,2025-04-30_21h14.19.501,,,1698.361799999982,,31
﻿Serial_Dependence_U,,1704.340799999982,1703.838399999976,2,41,001,,2,1701.929399999976,,2025-04-30_21h18.33.942,1706.5778999999761,m,,Time,238.09523809622803,1,0.3,SDMT1,1706.577799999982,1704.840299999982,,048844,2,Win32,,,2023.2.3,,19,,1702.9338999999761,,1707.575199999988,140,0.9,848.6000000238419,1701.929399999976,048844,1704.840299999982,1703.838299999982,1705.340699999988,,001,1705.340699999988,37,2025-04-30_21h14.19.501,,,1704.3405999999939,,32
﻿Serial_Dependence_U,,1709.982,1709.479599999994,2,131,001,,3,1707.5755,,2025-04-30_21h18.33.942,1712.648899999976,m,,Time,238.09523809622803,1,0.7,SDMT1,1712.648899999976,1710.482,,048844,2,Win32,,,2023.2.3,,19,,1708.575799999982,,1713.646099999994,141,0.9,919.5999999940395,1707.5755,048844,1710.482,1709.4795,1710.982,,001,1710.9818999999761,10,2025-04-30_21h14.19.501,,,1709.982,,33
﻿Serial_Dependence_U,,1716.254,1715.750699999988,2,349,001,,2,1713.6464999999998,,2025-04-30_21h18.33.942,1718.700299999982,m,,Time,238.09523809622803,1,0.3,SDMT1,1718.700299999982,1716.752699999988,,048844,2,Win32,,,2023.2.3,,19,,1714.648899999976,,1719.6985,142,1.1,1012.4000000059605,1713.646299999982,048844,1716.752699999988,1715.750699999988,1717.252799999982,,001,1717.252699999988,39,2025-04-30_21h14.19.501,,,1716.254,,34
﻿Serial_Dependence_U,,1722.604399999976,1722.100399999976,2,346,001,,4,1719.6989999999998,,2025-04-30_21h18.33.942,1725.673199999988,m,,Time,238.09523809622803,1,0.7,SDMT1,1725.6730999999938,1723.1025,,048844,2,Win32,,,2023.2.3,,19,,1720.700199999988,,1726.673299999982,143,1.4,1527.7999999821186,1719.698799999982,048844,1723.102599999994,1722.100299999982,1723.6039999999998,,001,1723.603899999976,33,2025-04-30_21h14.19.501,,,1722.604399999976,,35
﻿Serial_Dependence_U,,1729.683599999994,1729.1789999999999,2,151,001,,4,1726.673599999994,,2025-04-30_21h18.33.942,1733.491599999994,m,,Time,238.09523809622803,1,0.7,SDMT1,1733.4914999999999,1730.1815,,048844,2,Win32,,,2023.2.3,,19,,1727.677299999982,,1734.489599999994,144,1.5,1720.5999999940395,1726.673599999994,048844,1730.1815,1729.1789999999999,1730.6786999999879,,001,1730.6785999999938,52,2025-04-30_21h14.19.501,,,1729.683599999994,,36
﻿Serial_Dependence_U,,1737.302,1736.797799999982,2,104,001,,3,1734.4900999999938,,2025-04-30_21h18.33.942,1739.894799999982,m,,Time,238.09523809622803,1,0.7,SDMT1,1739.894699999988,1737.798199999988,,048844,2,Win32,,,2023.2.3,,19,,1735.493799999982,,1740.8935,145,1.3,1244.6000000238419,1734.4899999999998,048844,1737.798199999988,1736.797799999982,1738.295899999976,,001,1738.295899999976,32,2025-04-30_21h14.19.501,,,1737.301899999976,,37
﻿Serial_Dependence_U,,1743.802899999976,1743.300899999976,2,265,001,,4,1740.893699999988,,2025-04-30_21h18.33.942,1746.771399999976,m,,Time,238.09523809622803,1,0.7,SDMT1,1746.771299999982,1744.302,,048844,2,Win32,,,2023.2.3,,19,,1741.895399999976,,1747.768599999994,146,1.4,1526.0999999940395,1740.893699999988,048844,1744.302,1743.300799999982,1744.801899999976,,001,1744.801899999976,15,2025-04-30_21h14.19.501,,,1743.802799999982,,38
﻿Serial_Dependence_U,,1750.078799999982,1749.576699999988,2,286,001,,4,1747.7690999999938,,2025-04-30_21h18.33.942,1752.436699999988,m,,Time,238.09523809622803,1,0.3,SDMT1,1752.436699999988,1750.5765,,048844,2,Win32,,,2023.2.3,,19,,1748.7724999999998,,1753.436199999988,147,0.8,988.9000000059605,1747.7689999999998,048844,1750.5765,1749.576699999988,1751.076699999988,,001,1751.076599999994,18,2025-04-30_21h14.19.501,,,1750.078799999982,,39
﻿Serial_Dependence_U,,1756.044899999976,1755.540599999994,2,351,001,,4,1753.436399999976,,2025-04-30_21h18.33.942,1758.574199999988,m,,Time,238.09523809622803,1,0.3,SDMT1,1758.574099999994,1756.547299999982,,048844,2,Win32,,,2023.2.3,,19,,1754.438899999976,,1759.572099999994,148,1.1,1169.1000000238419,1753.436299999982,048844,1756.547299999982,1755.540599999994,1757.046699999988,,001,1757.046699999988,3,2025-04-30_21h14.19.501,,,1756.044799999982,,40
﻿Serial_Dependence_U,,1761.887,1761.376399999976,2,347,001,,5,1759.572299999982,,2025-04-30_21h18.33.942,1764.369699999988,m,,Time,238.09523809622803,1,0.3,SDMT1,1764.3695999999939,1762.387,,048844,2,Win32,,,2023.2.3,,19,,1760.574099999994,,1765.368,149,0.8,1125.5,1759.572299999982,048844,1762.387,1761.376399999976,1762.886,,001,1762.886,36,2025-04-30_21h14.19.501,,,1761.886899999976,,41
﻿Serial_Dependence_U,,1768.2743999999761,1767.774199999988,2,335,001,,2,1765.368399999976,,2025-04-30_21h18.33.942,1770.561299999982,m,,Time,238.09523809622803,1,0.3,SDMT1,1770.561199999988,1768.773399999976,,048844,2,Win32,,,2023.2.3,,19,,1766.372199999988,,1771.559399999976,150,1.4,1008.3000000119209,1765.368299999982,048844,1768.773399999976,1767.774199999988,1769.273399999976,,001,1769.273399999976,24,2025-04-30_21h14.19.501,,,1768.2743999999761,,42
﻿Serial_Dependence_U,,1774.364899999976,1773.863399999976,2,216,001,,2,1771.559899999976,,2025-04-30_21h18.33.942,1777.063299999982,m,,Time,238.09523809622803,1,0.3,SDMT1,1777.063299999982,1774.863399999976,,048844,2,Win32,,,2023.2.3,,19,,1772.562,,1778.0635,151,1.3,1207.9000000059605,1771.559799999982,048844,1774.863399999976,1773.863299999982,1775.363799999982,,001,1775.363699999988,23,2025-04-30_21h14.19.501,,,1774.364899999976,,43
﻿Serial_Dependence_U,,1780.577299999982,1780.0725999999938,2,66,001,,4,1778.064099999994,,2025-04-30_21h18.33.942,1782.977599999994,m,,Time,238.09523809622803,1,0.3,SDMT1,1782.977599999994,1781.075599999994,,048844,2,Win32,,,2023.2.3,,19,,1779.067399999976,,1783.9759999999999,152,1,1129,1778.063799999982,048844,1781.075599999994,1780.0725999999938,1781.5759999999998,,001,1781.575899999976,38,2025-04-30_21h14.19.501,,,1780.577299999982,,44
﻿Serial_Dependence_U,,1786.288299999982,1785.784299999982,2,29,001,,4,1783.976799999982,,2025-04-30_21h18.33.942,1788.4279999999999,m,,Time,238.09523809622803,1,0.7,SDMT1,1788.4277999999822,1786.7855,,048844,2,Win32,,,2023.2.3,,19,,1784.9799999999998,,1789.4257999999818,153,0.8,895.3000000119209,1783.9765,048844,1786.7855,1785.784299999982,1787.2839999999999,,001,1787.2839999999999,45,2025-04-30_21h14.19.501,,,1786.2880999999938,,45
﻿Serial_Dependence_U,,1791.9314999999997,1791.430199999988,2,260,001,,3,1789.4263999999762,,2025-04-30_21h18.33.942,1794.1825,m,,Time,238.09523809622803,1,0.7,SDMT1,1794.1822999999822,1792.4308999999762,,048844,2,Win32,,,2023.2.3,,19,,1790.4274999999998,,1795.180799999982,154,1,1009.0999999940395,1789.4260999999938,048844,1792.4308999999762,1791.4300999999941,1792.931,,001,1792.931,47,2025-04-30_21h14.19.501,,,1791.9314999999997,,46
﻿Serial_Dependence_U,,1798.188299999982,1797.6839999999997,2,318,001,,3,1795.181,,2025-04-30_21h18.33.942,1801.0521999999878,m,,Time,238.09523809622803,1,0.7,SDMT1,1801.0519999999997,1798.688099999994,,048844,2,Win32,,,2023.2.3,,19,,1796.1813999999758,,1802.050699999988,155,1.5,1458.0999999940395,1795.1808999999762,048844,1798.688099999994,1797.683899999976,1799.184899999976,,001,1799.184899999976,16,2025-04-30_21h14.19.501,,,1798.1881999999878,,47
﻿Serial_Dependence_U,,1805.0586999999878,1804.5563999999758,2,228,001,,2,1802.0516999999882,,2025-04-30_21h18.33.942,1807.679099999994,m,,Time,238.09523809622803,1,0.3,SDMT1,1807.679099999994,1805.5585,,048844,2,Win32,,,2023.2.3,,19,,1803.0518999999758,,1808.6765,156,1.5,1320.300000011921,1802.051299999982,048844,1805.558599999994,1804.5563999999758,1806.0585,,001,1806.0585,7,2025-04-30_21h14.19.501,,,1805.0586999999878,,48
﻿Serial_Dependence_U,,1811.281599999994,1810.780699999988,2,211,001,,3,1808.6766999999882,,2025-04-30_21h18.33.942,1813.6996999999878,m,,Time,238.09523809622803,1,0.7,SDMT1,1813.699599999994,1811.7788999999761,,048844,2,Win32,,,2023.2.3,,19,,1809.679599999994,,1814.6999999999998,157,1.1,1067.8999999761581,1808.6765999999939,048844,1811.7788999999761,1810.7805999999941,1812.2793999999762,,001,1812.2793999999762,48,2025-04-30_21h14.19.501,,,1811.2815,,49
﻿Serial_Dependence_U,,1817.406,1816.904299999982,2,238,001,,3,1814.7005,,2025-04-30_21h18.33.942,1819.9846999999882,m,,Time,238.09523809622803,1,0.7,SDMT1,1819.9845999999939,1817.9054999999998,,048844,2,Win32,,,2023.2.3,,19,,1815.699899999976,,1820.9826999999877,158,1.2,1189.2999999821186,1814.700399999976,048844,1817.9054999999998,1816.9041999999881,1818.4052999999822,,001,1818.4052999999822,31,2025-04-30_21h14.19.501,,,1817.406,,50
﻿Serial_Dependence_U,,1824.0929999999998,1823.5870999999938,2,175,001,,2,1820.9829999999997,,2025-04-30_21h18.33.942,1826.8601999999878,m,,Time,238.09523809622803,1,0.3,SDMT1,1826.860099999994,1824.5955,,048844,2,Win32,,,2023.2.3,,19,,1821.984799999982,,1827.8576999999877,159,1.6,1436.5,1820.9828999999759,048844,1824.5955,1823.5870999999938,1825.095199999988,,001,1825.095099999994,44,2025-04-30_21h14.19.501,,,1824.092899999976,,51
﻿Serial_Dependence_U,,1830.2661999999877,1829.762899999976,2,343,001,,3,1827.858099999994,,2025-04-30_21h18.33.942,1832.5425999999939,m,,Time,238.09523809622803,1,0.3,SDMT1,1832.5425999999939,1830.766,,048844,2,Win32,,,2023.2.3,,19,,1828.8618999999762,,1833.5406999999877,160,0.9,941.5999999940395,1827.8579999999997,048844,1830.766,1829.762899999976,1831.265199999988,,001,1831.265199999988,19,2025-04-30_21h14.19.501,,,1830.266099999994,,52
﻿Serial_Dependence_U,,1836.453199999988,1835.949099999994,2,99,001,,3,1833.5409999999997,,2025-04-30_21h18.33.942,1839.0115,m,,Time,238.09523809622803,1,0.3,SDMT1,1839.0113999999762,1836.9530999999938,,048844,2,Win32,,,2023.2.3,,19,,1834.544799999982,,1840.011299999982,161,1.4,1387.699999988079,1833.5409999999997,048844,1836.953199999988,1835.949099999994,1837.4528999999761,,001,1837.4528999999761,6,2025-04-30_21h14.19.501,,,1836.453199999988,,53
﻿Serial_Dependence_U,60.927999999999884,1903.7532999999821,1903.251699999988,3,300,001,,2,1900.9471999999878,,2025-04-30_21h18.33.942,1906.2616999999877,m,,Time,238.09523809622803,1,0.3,SDMT1,1906.261599999994,1904.248799999982,,048844,3,Win32,,,2023.2.3,,19,,1901.9494999999997,,1907.2594999999997,162,1.3,1169.9000000059605,1840.0115,048844,1904.248799999982,1903.2515999999941,1904.748899999976,,001,1904.748899999976,5,2025-04-30_21h14.19.501,,,1903.7531999999878,s,0
﻿Serial_Dependence_U,,1910.1679999999997,1909.6655,3,73,001,,2,1907.2605999999937,,2025-04-30_21h18.33.942,1912.780699999988,m,,Time,238.09523809622803,1,0.3,SDMT1,1912.780699999988,1910.6681999999878,,048844,3,Win32,,,2023.2.3,,19,,1908.2641999999878,,1913.780399999976,163,1.4,1282,1907.2596999999878,048844,1910.6681999999878,1909.6655,1911.167799999982,,001,1911.167799999982,42,2025-04-30_21h14.19.501,,,1910.1679999999997,,1
﻿Serial_Dependence_U,,1916.589199999988,1916.0862999999822,3,258,001,,2,1913.780899999976,,2025-04-30_21h18.33.942,1919.2926999999881,m,,Time,238.09523809622803,1,0.7,SDMT1,1919.2925999999939,1917.0885999999941,,048844,3,Win32,,,2023.2.3,,19,,1914.784599999994,,1920.2926999999881,164,1.3,1202.699999988079,1913.7807999999818,048844,1917.0885999999941,1916.086199999988,1917.588399999976,,001,1917.588399999976,50,2025-04-30_21h14.19.501,,,1916.5890999999938,,2
﻿Serial_Dependence_U,,1922.6968999999763,1922.193699999988,3,38,001,,4,1920.2931999999878,,2025-04-30_21h18.33.942,1925.1298999999763,m,,Time,238.09523809622803,1,0.3,SDMT1,1925.129799999982,1923.1969999999997,,048844,3,Win32,,,2023.2.3,,19,,1921.2926999999881,,1926.1310999999941,165,0.9,1113,1920.2929999999997,048844,1923.1969999999997,1922.193699999988,1923.6983999999761,,001,1923.6983999999761,19,2025-04-30_21h14.19.501,,,1922.696799999982,,3
﻿Serial_Dependence_U,,1929.2396999999878,1928.7382999999818,3,314,001,,2,1926.131399999976,,2025-04-30_21h18.33.942,1931.9587999999821,m,,Time,238.09523809622803,1,0.7,SDMT1,1931.9587999999821,1929.7379999999998,,048844,3,Win32,,,2023.2.3,,19,,1927.1358999999761,,1932.9589999999998,166,1.6,1309.9000000059605,1926.1312999999818,048844,1929.7379999999998,1928.738199999988,1930.2382999999818,,001,1930.238199999988,53,2025-04-30_21h14.19.501,,,1929.2396999999878,,4
﻿Serial_Dependence_U,,1935.5671999999881,1935.065299999982,3,128,001,,3,1932.959399999976,,2025-04-30_21h18.33.942,1938.0585,m,,Time,238.09523809622803,1,0.7,SDMT1,1938.0583999999762,1936.0675,,048844,3,Win32,,,2023.2.3,,19,,1933.963399999976,,1939.058899999976,167,1.1,1103.5999999940395,1932.959199999988,048844,1936.067599999994,1935.0651999999882,1936.5671999999881,,001,1936.5671999999881,30,2025-04-30_21h14.19.501,,,1935.5671999999881,,5
﻿Serial_Dependence_U,,1941.472699999988,1940.9668999999762,3,77,001,,1,1939.0592999999822,,2025-04-30_21h18.33.942,1943.0085999999937,m,,Time,238.09523809622803,1,0.3,SDMT1,1943.0085,1941.9711999999881,,048844,3,Win32,,,2023.2.3,,19,,1940.0628999999763,,1944.008699999988,168,0.9,247.2999999821186,1939.059099999994,048844,1941.9711999999881,1940.9668999999762,1942.4707999999819,,001,1942.4707999999819,1,2025-04-30_21h14.19.501,,,1941.472699999988,,6
﻿Serial_Dependence_U,,1947.117099999994,1946.613799999982,3,315,001,,2,1944.0090999999939,,2025-04-30_21h18.33.942,1949.808299999982,m,,Time,238.09523809622803,1,0.7,SDMT1,1949.808299999982,1947.6166999999878,,048844,3,Win32,,,2023.2.3,,19,,1945.012699999988,,1950.8083999999762,169,1.6,1367.4000000059605,1944.0088999999762,048844,1947.6166999999878,1946.613799999982,1948.1166999999878,,001,1948.1166999999878,35,2025-04-30_21h14.19.501,,,1947.117099999994,,7
﻿Serial_Dependence_U,,1953.220699999988,1952.716799999982,3,284,001,,5,1950.8089999999997,,2025-04-30_21h18.33.942,1955.741599999994,m,,Time,238.09523809622803,1,0.7,SDMT1,1955.7415,1953.7207999999819,,048844,3,Win32,,,2023.2.3,,19,,1951.812799999982,,1956.741599999994,170,0.9,1173.5,1950.808799999982,048844,1953.7207999999819,1952.716799999982,1954.220699999988,,001,1954.2205999999937,28,2025-04-30_21h14.19.501,,,1953.2205999999937,,8
﻿Serial_Dependence_U,,1959.2475999999938,1958.7453999999761,3,3,001,,3,1956.7422999999822,,2025-04-30_21h18.33.942,1961.5513999999762,m,,Time,238.09523809622803,1,0.3,SDMT1,1961.551299999982,1959.746899999976,,048844,3,Win32,,,2023.2.3,,19,,1957.7425999999941,,1962.5498999999759,171,1,1048.0999999940395,1956.7419999999997,048844,1959.7469999999998,1958.7453999999761,1960.2475999999938,,001,1960.2475999999938,20,2025-04-30_21h14.19.501,,,1959.2475,,9
﻿Serial_Dependence_U,,1965.355299999982,1964.8536999999878,3,312,001,,3,1962.550399999976,,2025-04-30_21h18.33.942,1968.1681999999878,m,,Time,238.09523809622803,1,0.3,SDMT1,1968.168099999994,1965.8537999999821,,048844,3,Win32,,,2023.2.3,,19,,1963.5515,,1969.167799999982,172,1.3,1362.800000011921,1962.5501999999879,048844,1965.8537999999821,1964.8536999999878,1966.359799999982,,001,1966.359799999982,41,2025-04-30_21h14.19.501,,,1965.355299999982,,10
﻿Serial_Dependence_U,,1972.0744999999997,1971.572599999994,3,169,001,,2,1969.1681999999878,,2025-04-30_21h18.33.942,1974.6365,m,,Time,238.09523809622803,1,0.7,SDMT1,1974.6363999999762,1972.574299999982,,048844,3,Win32,,,2023.2.3,,19,,1970.1701999999877,,1975.636799999982,173,1.4,1243.2000000178814,1969.168099999994,048844,1972.574299999982,1971.5724999999998,1973.0718999999763,,001,1973.0718999999763,33,2025-04-30_21h14.19.501,,,1972.0743999999759,,11
﻿Serial_Dependence_U,,1978.3511999999878,1977.8469999999998,3,356,001,,3,1975.6369999999997,,2025-04-30_21h18.33.942,1980.801,m,,Time,238.09523809622803,1,0.3,SDMT1,1980.800899999976,1978.8492999999821,,048844,3,Win32,,,2023.2.3,,19,,1976.641099999994,,1981.7988999999761,174,1.2,1161.199999988079,1975.6369999999997,048844,1978.849399999976,1977.8469999999998,1979.349099999994,,001,1979.3489999999997,4,2025-04-30_21h14.19.501,,,1978.351099999994,,12
﻿Serial_Dependence_U,,1984.1002999999819,1983.599899999976,3,72,001,,3,1981.799299999982,,2025-04-30_21h18.33.942,1986.2402999999822,m,,Time,238.09523809622803,1,0.3,SDMT1,1986.2402999999822,1984.599099999994,,048844,3,Win32,,,2023.2.3,,19,,1982.7993999999762,,1987.2402999999822,175,0.8,791.5,1981.799199999988,048844,1984.5991999999878,1983.599899999976,1985.099099999994,,001,1985.099099999994,18,2025-04-30_21h14.19.501,,,1984.1002999999819,,13
﻿Serial_Dependence_U,,1989.8525,1989.3503999999762,3,190,001,,2,1987.2404999999999,,2025-04-30_21h18.33.942,1992.179599999994,m,,Time,238.09523809622803,1,0.7,SDMT1,1992.179599999994,1990.352799999982,,048844,3,Win32,,,2023.2.3,,19,,1988.244699999988,,1993.178199999988,176,1.1,991.0999999940395,1987.240399999976,048844,1990.352799999982,1989.3502999999819,1990.8531999999877,,001,1990.853099999994,12,2025-04-30_21h14.19.501,,,1989.8523999999761,,14
﻿Serial_Dependence_U,,1995.490399999976,1994.9863999999761,3,0,001,,4,1993.1785,,2025-04-30_21h18.33.942,1997.909,m,,Time,238.09523809622803,1,0.7,SDMT1,1997.9088999999763,1995.9902999999822,,048844,3,Win32,,,2023.2.3,,19,,1994.181899999976,,1998.907099999994,177,0.8,973.0999999940395,1993.1785,048844,1995.990399999976,1994.986199999988,1996.4874999999997,,001,1996.4874999999997,27,2025-04-30_21h14.19.501,,,1995.4902999999822,,15
﻿Serial_Dependence_U,,2001.5121999999878,2001.011299999982,3,268,001,,4,1998.9074999999998,,2025-04-30_21h18.33.942,2004.308599999994,m,,Time,238.09523809622803,1,0.3,SDMT1,2004.308599999994,2002.0108999999761,,048844,3,Win32,,,2023.2.3,,19,,1999.907599999994,,2005.3061999999882,178,1.1,1273.7000000178814,1998.907399999976,048844,2002.011,2001.011199999988,2002.5107999999818,,001,2002.5107999999818,3,2025-04-30_21h14.19.501,,,2001.512099999994,,16
﻿Serial_Dependence_U,,2007.811099999994,2007.309099999994,3,58,001,,4,2005.3064999999997,,2025-04-30_21h18.33.942,2010.2456999999881,m,,Time,238.09523809622803,1,0.3,SDMT1,2010.2455999999938,2008.3105,,048844,3,Win32,,,2023.2.3,,19,,2006.3069999999998,,2011.2452999999819,179,1,1137.2999999821186,2005.3064999999997,048844,2008.3105,2007.3089999999997,2008.8075999999937,,001,2008.8075,2,2025-04-30_21h14.19.501,,,2007.8109999999997,,17
﻿Serial_Dependence_U,,2014.2520999999938,2013.7500999999938,3,138,001,,2,2011.2455999999938,,2025-04-30_21h18.33.942,2016.8398999999758,m,,Time,238.09523809622803,1,0.7,SDMT1,2016.839799999982,2014.7525,,048844,3,Win32,,,2023.2.3,,19,,2012.248599999994,,2017.8398999999758,180,1.5,1142.3999999761581,2011.2455,048844,2014.752599999994,2013.7500999999938,2015.2523999999762,,001,2015.252299999982,52,2025-04-30_21h14.19.501,,,2014.2520999999938,,18
﻿Serial_Dependence_U,,2020.2525,2019.748299999982,3,174,001,,5,2017.840399999976,,2025-04-30_21h18.33.942,2023.0873999999762,m,,Time,238.09523809622803,1,0.3,SDMT1,2023.087299999982,2020.751699999988,,048844,3,Win32,,,2023.2.3,,19,,2018.846,,2024.0854999999997,181,0.9,1483.199999988079,2017.8401999999878,048844,2020.751699999988,2019.7481999999882,2021.252199999988,,001,2021.252199999988,37,2025-04-30_21h14.19.501,,,2020.2523999999762,,19
﻿Serial_Dependence_U,,2026.793899999976,2026.2897999999818,3,104,001,,3,2024.0859999999998,,2025-04-30_21h18.33.942,2029.3046999999879,m,,Time,238.09523809622803,1,0.3,SDMT1,2029.304599999994,2027.293699999988,,048844,3,Win32,,,2023.2.3,,19,,2025.0873999999762,,2030.3021999999878,182,1.2,1204.199999988079,2024.085799999982,048844,2027.293699999988,2026.289699999988,2027.793899999976,,001,2027.793899999976,40,2025-04-30_21h14.19.501,,,2026.7937999999822,,20
﻿Serial_Dependence_U,,2033.112,2032.6101999999878,3,247,001,,3,2030.302699999988,,2025-04-30_21h18.33.942,2036.6115999999938,m,,Time,238.09523809622803,1,0.3,SDMT1,2036.6113999999761,2033.611799999982,,048844,3,Win32,,,2023.2.3,,19,,2031.3058999999762,,2037.6104999999998,183,1.3,1354.800000011921,2030.302599999994,048844,2033.6118999999762,2032.610099999994,2034.1113999999761,,001,2034.1113999999761,23,2025-04-30_21h14.19.501,,,2033.1118999999762,,21
﻿Serial_Dependence_U,,2040.0186999999878,2039.5180999999939,3,120,001,,4,2037.6109999999999,,2025-04-30_21h18.33.942,2042.418399999976,m,,Time,238.09523809622803,1,0.7,SDMT1,2042.418299999982,2040.518299999982,,048844,3,Win32,,,2023.2.3,,19,,2038.6140999999939,,2043.418399999976,184,0.9,996.5,2037.610899999976,048844,2040.518299999982,2039.5180999999939,2041.018299999982,,001,2041.0181999999882,46,2025-04-30_21h14.19.501,,,2040.0186999999878,,22
﻿Serial_Dependence_U,,2046.5265,2046.0225,3,252,001,,2,2043.4189999999999,,2025-04-30_21h18.33.942,2049.051,m,,Time,238.09523809622803,1,0.3,SDMT1,2049.050899999976,2047.026399999976,,048844,3,Win32,,,2023.2.3,,19,,2044.4193999999761,,2050.051399999976,185,1.6,1229,2043.4187999999822,048844,2047.026399999976,2046.0223999999762,2047.523599999994,,001,2047.523599999994,44,2025-04-30_21h14.19.501,,,2046.5265,,23
﻿Serial_Dependence_U,,2053.160799999982,2052.660399999976,3,75,001,,4,2050.051699999988,,2025-04-30_21h18.33.942,2056.319699999988,m,,Time,238.09523809622803,1,0.7,SDMT1,2056.319599999994,2053.6594999999998,,048844,3,Win32,,,2023.2.3,,19,,2051.056,,2057.319199999988,186,1.6,1745.5999999940395,2050.051599999994,048844,2053.6594999999998,2052.660399999976,2054.159199999988,,001,2054.159199999988,17,2025-04-30_21h14.19.501,,,2053.160799999982,,24
﻿Serial_Dependence_U,,2059.730299999982,2059.2270999999937,3,249,001,,5,2057.3195,,2025-04-30_21h18.33.942,2062.284099999994,m,,Time,238.09523809622803,1,0.7,SDMT1,2062.284,2060.230099999994,,048844,3,Win32,,,2023.2.3,,19,,2058.3219999999997,,2063.2815,187,0.9,1195,2057.319399999976,048844,2060.230099999994,2059.227,2060.730199999988,,001,2060.730199999988,10,2025-04-30_21h14.19.501,,,2059.730199999988,,25
﻿Serial_Dependence_U,,2065.989199999988,2065.485899999976,3,224,001,,4,2063.281799999982,,2025-04-30_21h18.33.942,2068.529799999982,m,,Time,238.09523809622803,1,0.7,SDMT1,2068.5296999999878,2066.488,,048844,3,Win32,,,2023.2.3,,19,,2064.284299999982,,2069.527099999994,188,1.2,1274.2000000178814,2063.281699999988,048844,2066.488,2065.485899999976,2066.988399999976,,001,2066.988399999976,31,2025-04-30_21h14.19.501,,,2065.989199999988,,26
﻿Serial_Dependence_U,,2072.233899999976,2071.731399999976,3,241,001,,2,2069.527399999976,,2025-04-30_21h18.33.942,2074.462899999976,m,,Time,238.09523809622803,1,0.7,SDMT1,2074.462799999982,2072.7340999999938,,048844,3,Win32,,,2023.2.3,,19,,2070.527599999994,,2075.463199999988,189,1.2,1014.1999999880791,2069.527299999982,048844,2072.734199999988,2071.731399999976,2073.234,,001,2073.234,13,2025-04-30_21h14.19.501,,,2072.233899999976,,27
﻿Serial_Dependence_U,,2077.773599999994,2077.268299999982,3,277,001,,5,2075.463599999994,,2025-04-30_21h18.33.942,2080.331599999994,m,,Time,238.09523809622803,1,0.3,SDMT1,2080.3315,2078.271299999982,,048844,3,Win32,,,2023.2.3,,19,,2076.465199999988,,2081.329599999994,190,0.8,1226.7999999821186,2075.4635,048844,2078.271399999976,2077.268199999988,2078.771399999976,,001,2078.771299999982,36,2025-04-30_21h14.19.501,,,2077.7735,,28
﻿Serial_Dependence_U,,2084.435599999994,2083.934799999982,3,242,001,,3,2081.33,,2025-04-30_21h18.33.942,2087.408399999976,m,,Time,238.09523809622803,1,0.3,SDMT1,2087.408299999982,2084.933599999994,,048844,3,Win32,,,2023.2.3,,19,,2082.331399999976,,2088.408599999994,191,1.6,1675.0999999940395,2081.33,048844,2084.9336999999878,2083.934699999988,2085.433599999994,,001,2085.433599999994,26,2025-04-30_21h14.19.501,,,2084.435599999994,,29
﻿Serial_Dependence_U,,2091.520799999982,2091.016599999994,3,163,001,,3,2088.409199999988,,2025-04-30_21h18.33.942,2094.434699999988,m,,Time,238.09523809622803,1,0.3,SDMT1,2094.434599999994,2092.017899999976,,048844,3,Win32,,,2023.2.3,,19,,2089.4125999999937,,2095.434299999982,192,1.6,1611.4000000059605,2088.409,048844,2092.017899999976,2091.0164999999997,2092.518199999988,,001,2092.518099999994,8,2025-04-30_21h14.19.501,,,2091.520799999982,,30
﻿Serial_Dependence_U,,2098.3475,2097.841299999982,3,196,001,,2,2095.434599999994,,2025-04-30_21h18.33.942,2100.922399999976,m,,Time,238.09523809622803,1,0.7,SDMT1,2100.922299999982,2098.845699999988,,048844,3,Win32,,,2023.2.3,,19,,2096.439199999988,,2101.9201999999877,193,1.4,1327.0999999940395,2095.434599999994,048844,2098.845699999988,2097.841199999988,2099.345799999982,,001,2099.345799999982,51,2025-04-30_21h14.19.501,,,2098.3475,,31
﻿Serial_Dependence_U,,2104.83,2104.326799999982,3,200,001,,4,2101.9204999999997,,2025-04-30_21h18.33.942,2107.6679999999997,m,,Time,238.09523809622803,1,0.7,SDMT1,2107.667899999976,2105.328899999976,,048844,3,Win32,,,2023.2.3,,19,,2102.922399999976,,2108.666299999982,194,1.4,1599.9000000059605,2101.920399999976,048844,2105.328899999976,2104.326699999988,2105.828799999982,,001,2105.828799999982,15,2025-04-30_21h14.19.501,,,2104.829899999976,,32
﻿Serial_Dependence_U,,2111.276299999982,2110.772299999982,3,176,001,,4,2108.666599999994,,2025-04-30_21h18.33.942,2113.905299999982,m,,Time,238.09523809622803,1,0.3,SDMT1,2113.905299999982,2111.774799999982,,048844,3,Win32,,,2023.2.3,,19,,2109.6679999999997,,2114.904899999976,195,1.1,1312,2108.6665,048844,2111.7748999999762,2110.772299999982,2112.274399999976,,001,2112.274399999976,21,2025-04-30_21h14.19.501,,,2111.276299999982,,33
﻿Serial_Dependence_U,,2117.513699999988,2117.009299999982,3,58,001,,4,2114.905199999988,,2025-04-30_21h18.33.942,2120.283799999982,m,,Time,238.09523809622803,1,0.7,SDMT1,2120.283699999988,2118.013599999994,,048844,3,Win32,,,2023.2.3,,19,,2115.906199999988,,2121.284,196,1.1,1249.5999999940395,2114.9049999999997,048844,2118.013599999994,2117.009199999988,2118.511799999982,,001,2118.511799999982,48,2025-04-30_21h14.19.501,,,2117.513699999988,,34
﻿Serial_Dependence_U,,2123.890799999982,2123.3866999999877,3,200,001,,4,2121.284299999982,,2025-04-30_21h18.33.942,2126.740399999976,m,,Time,238.09523809622803,1,0.3,SDMT1,2126.740299999982,2124.390699999988,,048844,3,Win32,,,2023.2.3,,19,,2122.286299999982,,2127.741899999976,197,1.1,1427.5,2121.284199999988,048844,2124.390699999988,2123.386599999994,2124.890699999988,,001,2124.890699999988,39,2025-04-30_21h14.19.501,,,2123.890699999988,,35
﻿Serial_Dependence_U,,2130.050799999982,2129.549099999994,3,69,001,,3,2127.742199999988,,2025-04-30_21h18.33.942,2132.121299999982,m,,Time,238.09523809622803,1,0.7,SDMT1,2132.1211999999878,2130.550399999976,,048844,3,Win32,,,2023.2.3,,19,,2128.744799999982,,2133.119599999994,198,0.8,832.3000000119209,2127.742199999988,048844,2130.550399999976,2129.549,2131.050299999982,,001,2131.050299999982,45,2025-04-30_21h14.19.501,,,2130.050699999988,,36
﻿Serial_Dependence_U,,2136.132,2135.629699999988,3,282,001,,3,2133.12,,2025-04-30_21h18.33.942,2138.813,m,,Time,238.09523809622803,1,0.3,SDMT1,2138.8128999999763,2136.632099999994,,048844,3,Win32,,,2023.2.3,,19,,2134.126099999994,,2139.8125,199,1.5,1500.699999988079,2133.119799999982,048844,2136.632099999994,2135.629599999994,2137.132099999994,,001,2137.132099999994,7,2025-04-30_21h14.19.501,,,2136.131899999976,,37
﻿Serial_Dependence_U,,2142.3195,2141.815399999976,3,108,001,,4,2139.812699999988,,2025-04-30_21h18.33.942,2144.833899999976,m,,Time,238.09523809622803,1,0.7,SDMT1,2144.833799999982,2142.819399999976,,048844,3,Win32,,,2023.2.3,,19,,2140.812799999982,,2145.833299999982,200,1,1225.2000000178814,2139.812699999988,048844,2142.819399999976,2141.815299999982,2143.319299999982,,001,2143.319199999988,29,2025-04-30_21h14.19.501,,,2142.319399999976,,38
﻿Serial_Dependence_U,,2148.544399999976,2148.041299999982,3,138,001,,4,2145.833699999988,,2025-04-30_21h18.33.942,2151.079199999988,m,,Time,238.09523809622803,1,0.7,SDMT1,2151.079199999988,2149.044299999982,,048844,3,Win32,,,2023.2.3,,19,,2146.837899999976,,2152.0786999999877,201,1.2,1295,2145.833599999994,048844,2149.044299999982,2148.041199999988,2149.544199999988,,001,2149.544199999988,49,2025-04-30_21h14.19.501,,,2148.544299999982,,39
﻿Serial_Dependence_U,,2154.785599999994,2154.283799999982,3,154,001,,4,2152.0789999999997,,2025-04-30_21h18.33.942,2157.402199999988,m,,Time,238.09523809622803,1,0.3,SDMT1,2157.402099999994,2155.285599999994,,048844,3,Win32,,,2023.2.3,,19,,2153.081599999994,,2158.402399999976,202,1.2,1320.3999999761581,2152.078899999976,048844,2155.285599999994,2154.283699999988,2155.785599999994,,001,2155.785599999994,22,2025-04-30_21h14.19.501,,,2154.7855,,40
﻿Serial_Dependence_U,,2160.911899999976,2160.4105,3,52,001,,3,2158.402899999976,,2025-04-30_21h18.33.942,2163.262299999982,m,,Time,238.09523809622803,1,0.3,SDMT1,2163.262299999982,2161.410099999994,,048844,3,Win32,,,2023.2.3,,19,,2159.408299999982,,2164.260399999976,203,1,1041.5,2158.402699999988,048844,2161.410099999994,2160.410399999976,2161.910699999988,,001,2161.910599999994,38,2025-04-30_21h14.19.501,,,2160.911799999982,,41
﻿Serial_Dependence_U,,2167.1746999999878,2166.6701999999877,3,7,001,,2,2164.260799999982,,2025-04-30_21h18.33.942,2169.656099999994,m,,Time,238.09523809622803,1,0.3,SDMT1,2169.656099999994,2167.672899999976,,048844,3,Win32,,,2023.2.3,,19,,2165.266399999976,,2170.656099999994,204,1.4,1243.2000000178814,2164.260699999988,048844,2167.672899999976,2166.6701999999877,2168.173,,001,2168.173,6,2025-04-30_21h14.19.501,,,2167.174599999994,,42
﻿Serial_Dependence_U,,2173.166099999994,2172.665899999976,3,51,001,,2,2170.6565,,2025-04-30_21h18.33.942,2175.2616999999877,m,,Time,238.09523809622803,1,0.7,SDMT1,2175.2616999999877,2173.664399999976,,048844,3,Win32,,,2023.2.3,,19,,2171.66,,2176.260199999988,205,1,890.3000000119209,2170.656399999976,048844,2173.664399999976,2172.665899999976,2174.164299999982,,001,2174.164299999982,11,2025-04-30_21h14.19.501,,,2173.1659999999997,,43
﻿Serial_Dependence_U,,2179.2655,2178.7616999999877,3,206,001,,2,2176.2605999999937,,2025-04-30_21h18.33.942,2182.001599999994,m,,Time,238.09523809622803,1,0.7,SDMT1,2182.0015,2179.7639999999997,,048844,3,Win32,,,2023.2.3,,19,,2177.2599999999998,,2183.001399999976,206,1.5,1347.9000000059605,2176.2605,048844,2179.7639999999997,2178.7616999999877,2180.264199999988,,001,2180.264199999988,34,2025-04-30_21h14.19.501,,,2179.2655,,44
﻿Serial_Dependence_U,,2186.011599999994,2185.507399999976,3,178,001,,2,2183.001599999994,,2025-04-30_21h18.33.942,2188.486599999994,m,,Time,238.09523809622803,1,0.3,SDMT1,2188.486599999994,2186.511299999982,,048844,3,Win32,,,2023.2.3,,19,,2184.007099999994,,2189.484599999994,207,1.5,1212.2999999821186,2183.0015,048844,2186.511299999982,2185.507299999982,2187.011399999976,,001,2187.011399999976,43,2025-04-30_21h14.19.501,,,2186.0115,,45
﻿Serial_Dependence_U,,2192.292899999976,2191.79,3,182,001,,3,2189.4849999999997,,2025-04-30_21h18.33.942,2194.874299999982,m,,Time,238.09523809622803,1,0.7,SDMT1,2194.874199999988,2192.792899999976,,048844,3,Win32,,,2023.2.3,,19,,2190.485399999976,,2195.872,208,1.3,1341.800000011921,2189.484899999976,048844,2192.792899999976,2191.79,2193.292599999994,,001,2193.292599999994,14,2025-04-30_21h14.19.501,,,2192.292899999976,,46
﻿Serial_Dependence_U,,2198.381399999976,2197.8779999999997,3,309,001,,4,2195.8725,,2025-04-30_21h18.33.942,2200.982099999994,m,,Time,238.09523809622803,1,0.7,SDMT1,2200.981899999976,2198.88,,048844,3,Win32,,,2023.2.3,,19,,2196.876099999994,,2201.98,209,1,1278.800000011921,2195.872299999982,048844,2198.88,2197.8779999999997,2199.380099999994,,001,2199.380099999994,47,2025-04-30_21h14.19.501,,,2198.381399999976,,47
﻿Serial_Dependence_U,,2204.295,2203.790299999982,3,7,001,,5,2201.9804999999997,,2025-04-30_21h18.33.942,2206.898699999988,m,,Time,238.09523809622803,1,0.7,SDMT1,2206.898699999988,2204.7925,,048844,3,Win32,,,2023.2.3,,19,,2202.984199999988,,2207.897299999982,210,0.8,1375.2000000178814,2201.980399999976,048844,2204.792599999994,2203.790199999988,2205.292399999976,,001,2205.292399999976,9,2025-04-30_21h14.19.501,,,2204.294899999976,,48
﻿Serial_Dependence_U,,2210.708899999976,2210.205,3,266,001,,4,2207.897899999976,,2025-04-30_21h18.33.942,2213.321799999982,m,,Time,238.09523809622803,1,0.7,SDMT1,2213.321699999988,2211.209099999994,,048844,3,Win32,,,2023.2.3,,19,,2208.900799999982,,2214.321599999994,211,1.3,1388.5,2207.897699999988,048844,2211.209099999994,2210.205,2211.709199999988,,001,2211.709099999994,32,2025-04-30_21h14.19.501,,,2210.708899999976,,49
﻿Serial_Dependence_U,,2217.329899999976,2216.827099999994,3,217,001,,3,2214.3219999999997,,2025-04-30_21h18.33.942,2220.054599999994,m,,Time,238.09523809622803,1,0.7,SDMT1,2220.0544999999997,2217.829299999982,,048844,3,Win32,,,2023.2.3,,19,,2215.323699999988,,2221.054399999976,212,1.5,1473.300000011921,2214.321799999982,048844,2217.829299999982,2216.827099999994,2218.3269999999998,,001,2218.326899999976,16,2025-04-30_21h14.19.501,,,2217.329899999976,,50
﻿Serial_Dependence_U,,2224.064699999988,2223.562699999988,3,133,001,,2,2221.054599999994,,2025-04-30_21h18.33.942,2226.581399999976,m,,Time,238.09523809622803,1,0.3,SDMT1,2226.581399999976,2224.5628999999763,,048844,3,Win32,,,2023.2.3,,19,,2222.061099999994,,2227.573599999994,213,1.5,1312.199999988079,2221.054599999994,048844,2224.5628999999763,2223.562599999994,2225.0628999999763,,001,2225.0628999999763,25,2025-04-30_21h14.19.501,,,2224.064699999988,,51
﻿Serial_Dependence_U,,2230.488099999994,2229.983199999988,3,22,001,,2,2227.573899999976,,2025-04-30_21h18.33.942,2233.135099999994,m,,Time,238.09523809622803,1,0.3,SDMT1,2233.1349999999998,2230.987599999994,,048844,3,Win32,,,2023.2.3,,19,,2228.581199999988,,2234.134699999988,214,1.4,1320.0999999940395,2227.573799999982,048844,2230.987699999988,2229.983199999988,2231.487799999982,,001,2231.487799999982,24,2025-04-30_21h14.19.501,,,2230.488099999994,,52
﻿Serial_Dependence_U,,2236.442,2235.941399999976,3,39,001,,2,2234.134899999976,,2025-04-30_21h18.33.942,2238.218899999976,m,,Time,238.09523809622803,1,0.3,SDMT1,2238.218799999982,2236.9415999999937,,048844,3,Win32,,,2023.2.3,,19,,2235.139399999976,,2239.2165,215,0.8,633.5999999940395,2234.134899999976,048844,2236.941699999988,2235.941299999982,2237.441699999988,,001,2237.4415,0,2025-04-30_21h14.19.501,,,2236.441899999976,,53
﻿Serial_Dependence_U,107.72309999999379,2349.459299999982,2348.9550999999938,4,315,001,,4,2346.950699999988,,2025-04-30_21h18.33.942,2351.792599999994,m,,Time,238.09523809622803,1,0.7,SDMT1,2351.7925,2349.958899999976,,048844,4,Win32,,,2023.2.3,,19,,2347.951099999994,,2352.7895999999937,216,1,1132.300000011921,2239.2168999999762,048844,2349.958899999976,2348.9550999999938,2350.458899999976,,001,2350.458899999976,11,2025-04-30_21h14.19.501,,,2349.459199999988,s,0
﻿Serial_Dependence_U,,2355.396699999988,2354.896399999976,4,201,001,,4,2352.790399999976,,2025-04-30_21h18.33.942,2357.837899999976,m,,Time,238.09523809622803,1,0.3,SDMT1,2357.837799999982,2355.8965,,048844,4,Win32,,,2023.2.3,,19,,2353.792199999988,,2358.838199999988,217,1.1,1208.800000011921,2352.789699999988,048844,2355.896599999994,2354.896299999982,2356.396599999994,,001,2356.396599999994,39,2025-04-30_21h14.19.501,,,2355.396699999988,,1
﻿Serial_Dependence_U,,2361.746699999988,2361.242199999988,4,254,001,,2,2358.8385,,2025-04-30_21h18.33.942,2364.027599999994,m,,Time,238.09523809622803,1,0.3,SDMT1,2364.0274999999997,2362.246299999982,,048844,4,Win32,,,2023.2.3,,19,,2359.8399999999997,,2365.0254999999997,218,1.4,1027.800000011921,2358.838399999976,048844,2362.246299999982,2361.242099999994,2362.743399999976,,001,2362.743399999976,24,2025-04-30_21h14.19.501,,,2361.746599999994,,2
﻿Serial_Dependence_U,,2367.7340999999938,2367.2309999999998,4,229,001,,3,2365.025899999976,,2025-04-30_21h18.33.942,2370.152199999988,m,,Time,238.09523809622803,1,0.3,SDMT1,2370.152099999994,2368.233799999982,,048844,4,Win32,,,2023.2.3,,19,,2366.0296999999878,,2371.150299999982,219,1.2,1169.699999988079,2365.025799999982,048844,2368.233799999982,2367.2309999999998,2368.733699999988,,001,2368.733699999988,22,2025-04-30_21h14.19.501,,,2367.734,,3
﻿Serial_Dependence_U,,2373.662799999982,2373.159899999976,4,202,001,,4,2371.150799999982,,2025-04-30_21h18.33.942,2376.145599999994,m,,Time,238.09523809622803,1,0.3,SDMT1,2376.145599999994,2374.162699999988,,048844,4,Win32,,,2023.2.3,,19,,2372.1546999999878,,2377.145899999976,220,1,1136,2371.150599999994,048844,2374.162699999988,2373.159899999976,2374.662699999988,,001,2374.662699999988,2,2025-04-30_21h14.19.501,,,2373.662699999988,,4
﻿Serial_Dependence_U,,2380.1543999999762,2379.651899999976,4,337,001,,2,2377.1465,,2025-04-30_21h18.33.942,2383.3705,m,,Time,238.09523809622803,1,0.7,SDMT1,2383.370399999976,2380.654199999988,,048844,4,Win32,,,2023.2.3,,19,,2378.15,,2384.3708999999762,221,1.5,1334.699999988079,2377.146299999982,048844,2380.654199999988,2379.651799999982,2381.154199999988,,001,2381.154099999994,52,2025-04-30_21h14.19.501,,,2380.154299999982,,5
