Scale_setup.started,Scale_setup.stopped,participant,session,sex,age,date,expName,psychopyVersion,OS,frameRate,PROLIFIC_PID,STUDY_ID,SESSION_ID,screen_scale_keys.started,screen_scale_keys.stopped,X Scale,Y Scale,rectangel_keys.started,rectangel_keys.stopped,Intro.started,Intro.stopped,key_resp_2.keys,key_resp_2.rt,key_resp_2.duration,block.started,Block_id,block.stopped,Block_resp_2.keys,Block_resp_2.rt,Block_resp_2.duration,ITI.started,ITI.stopped,Mask_2.started,Mask_2.stopped,M2.started,direction,M2.stopped,Cue.started,Cue.stopped,Response.started,Response.stopped,keyDuration,Feedback_Time.started,FeedbackID_T,Feedback_Time.stopped,trials.thisRepN,trials.thisTrialN,trials.thisN,trials.thisIndex,trials.ran,TimeDur,Coherence1,TrialType
0.0003,0.0005,182072,001,,,2025-05-19_19h59.07.529,Serial_Dependence_U,2023.2.3,Win32,238.0952381,6776816f12ad2c97726dd2ab,68224bc8a476e0f1ff0bf7fa,682b7e5e68da843fe2e2d427,,,,,,,,,,,,,,,,,,,,,,,,,,,,,,,,,,,,,,,,
,,182072,001,,,2025-05-19_19h59.07.529,Serial_Dependence_U,2023.2.3,Win32,238.0952381,6776816f12ad2c97726dd2ab,68224bc8a476e0f1ff0bf7fa,682b7e5e68da843fe2e2d427,0.0016,78.2494,0.0339,0.0331,78.2495,98.027,98.0271,108.5658,space,10.5217,,,,,,,,,,,,,,,,,,,,,,,,,,,,,,
,,182072,001,,,2025-05-19_19h59.07.529,Serial_Dependence_U,2023.2.3,Win32,238.0952381,6776816f12ad2c97726dd2ab,68224bc8a476e0f1ff0bf7fa,682b7e5e68da843fe2e2d427,,,,,,,,,,,,108.57,0,110.6109,s,2.0318,,113.1229,113.6221,112.6184,113.1228,111.615,310,112.6183,113.6222,114.1225,114.1227,115.7588,649.8,115.7591,1,116.7575,0,0,0,6,1,1,0.7,Time
,,182072,001,,,2025-05-19_19h59.07.529,Serial_Dependence_U,2023.2.3,Win32,238.0952381,6776816f12ad2c97726dd2ab,68224bc8a476e0f1ff0bf7fa,682b7e5e68da843fe2e2d427,,,,,,,,,,,,116.7578,0,116.7587,,,,119.0662,119.5663,118.5629,119.066,117.7606,121,118.5627,119.5663,120.0668,120.0668,121.4016,626.4,121.4016,2,122.3985,0,1,1,25,1,0.8,0.7,Time
,,182072,001,,,2025-05-19_19h59.07.529,Serial_Dependence_U,2023.2.3,Win32,238.0952381,6776816f12ad2c97726dd2ab,68224bc8a476e0f1ff0bf7fa,682b7e5e68da843fe2e2d427,,,,,,,,,,,,122.3987,0,122.3988,,,,125.3055,125.8061,124.8023,125.3053,123.4012,114,124.8022,125.8062,126.3048,126.3048,128.0666,1301.3,128.0668,2,129.0665,0,2,2,28,1,1.4,0.7,Time
,,182072,001,,,2025-05-19_19h59.07.529,Serial_Dependence_U,2023.2.3,Win32,238.0952381,6776816f12ad2c97726dd2ab,68224bc8a476e0f1ff0bf7fa,682b7e5e68da843fe2e2d427,,,,,,,,,,,,129.0668,0,129.0669,,,,131.5784,132.0786,131.0745,131.5784,130.0687,209,131.0744,132.0788,132.5765,132.5765,133.9263,918.7,133.9265,2,134.9245,0,3,3,16,1,1,0.7,Time
,,182072,001,,,2025-05-19_19h59.07.529,Serial_Dependence_U,2023.2.3,Win32,238.0952381,6776816f12ad2c97726dd2ab,68224bc8a476e0f1ff0bf7fa,682b7e5e68da843fe2e2d427,,,,,,,,,,,,134.9249,0,134.9249,,,,138.0303,138.5283,137.5273,138.0302,135.9247,215,137.5273,138.5283,139.027,139.027,139.1812,133.9,139.1815,1,140.1939,0,4,4,24,1,1.6,0.3,Time
,,182072,001,,,2025-05-19_19h59.07.529,Serial_Dependence_U,2023.2.3,Win32,238.0952381,6776816f12ad2c97726dd2ab,68224bc8a476e0f1ff0bf7fa,682b7e5e68da843fe2e2d427,,,,,,,,,,,,140.1941,0,140.1943,,,,142.5012,142.9986,142.0007,142.5011,141.1999,66,142.0006,142.9986,143.4978,143.4979,144.8158,1005.1,144.8159,4,145.8168,0,5,5,0,1,0.8,0.3,Time
,,182072,001,,,2025-05-19_19h59.07.529,Serial_Dependence_U,2023.2.3,Win32,238.0952381,6776816f12ad2c97726dd2ab,68224bc8a476e0f1ff0bf7fa,682b7e5e68da843fe2e2d427,,,,,,,,,,,,145.817,0,145.8172,,,,148.7199,149.2199,148.2192,148.7199,146.818,61,148.2192,149.22,149.7142,149.7142,151.5068,1244.2,151.507,2,152.5073,0,6,6,18,1,1.4,0.7,Time
,,182072,001,,,2025-05-19_19h59.07.529,Serial_Dependence_U,2023.2.3,Win32,238.0952381,6776816f12ad2c97726dd2ab,68224bc8a476e0f1ff0bf7fa,682b7e5e68da843fe2e2d427,,,,,,,,,,,,152.5076,0,152.5077,,,,155.4096,155.91,154.9093,155.4096,153.5078,122,154.9092,155.91,156.4105,156.4106,157.8034,1176.6,157.8034,2,158.8003,0,7,7,3,1,1.4,0.3,Time
,,182072,001,,,2025-05-19_19h59.07.529,Serial_Dependence_U,2023.2.3,Win32,238.0952381,6776816f12ad2c97726dd2ab,68224bc8a476e0f1ff0bf7fa,682b7e5e68da843fe2e2d427,,,,,,,,,,,,158.8005,0,158.8006,,,,161.5075,162.0068,161.0027,161.5075,159.8013,154,161.0026,162.0068,162.5052,162.5052,164.0987,1340.1,164.0988,4,165.0993,0,8,8,7,1,1.2,0.7,Time
,,182072,001,,,2025-05-19_19h59.07.529,Serial_Dependence_U,2023.2.3,Win32,238.0952381,6776816f12ad2c97726dd2ab,68224bc8a476e0f1ff0bf7fa,682b7e5e68da843fe2e2d427,,,,,,,,,,,,165.0996,0,165.0997,,,,168.2054,168.7032,167.7048,168.2053,166.1033,285,167.7047,168.7032,169.2047,169.2047,170.8785,1415.4,170.8786,2,171.8751,0,9,9,29,1,1.6,0.7,Time
,,182072,001,,,2025-05-19_19h59.07.529,Serial_Dependence_U,2023.2.3,Win32,238.0952381,6776816f12ad2c97726dd2ab,68224bc8a476e0f1ff0bf7fa,682b7e5e68da843fe2e2d427,,,,,,,,,,,,171.8754,0,171.8755,,,,174.3797,174.8784,173.8772,174.3795,172.8764,31,173.8772,174.8784,175.3765,175.3766,176.5548,754.7,176.555,2,177.5528,0,10,10,26,1,1,0.7,Time
,,182072,001,,,2025-05-19_19h59.07.529,Serial_Dependence_U,2023.2.3,Win32,238.0952381,6776816f12ad2c97726dd2ab,68224bc8a476e0f1ff0bf7fa,682b7e5e68da843fe2e2d427,,,,,,,,,,,,177.5532,0,177.5533,,,,180.4686,180.9688,179.9665,180.4684,178.5628,143,179.9665,180.9688,181.4669,181.467,182.8778,1092,182.8779,2,183.8787,0,11,11,8,1,1.4,0.7,Time
,,182072,001,,,2025-05-19_19h59.07.529,Serial_Dependence_U,2023.2.3,Win32,238.0952381,6776816f12ad2c97726dd2ab,68224bc8a476e0f1ff0bf7fa,682b7e5e68da843fe2e2d427,,,,,,,,,,,,183.8789,0,183.879,,,,186.5855,187.083,186.0823,186.5854,184.8796,109,186.0822,187.083,187.582,187.5821,188.7875,1062.3,188.7876,2,189.7883,0,12,12,27,1,1.2,0.7,Time
,,182072,001,,,2025-05-19_19h59.07.529,Serial_Dependence_U,2023.2.3,Win32,238.0952381,6776816f12ad2c97726dd2ab,68224bc8a476e0f1ff0bf7fa,682b7e5e68da843fe2e2d427,,,,,,,,,,,,189.7886,0,189.7887,,,,192.4912,192.9917,191.9908,192.4911,190.7904,74,191.9906,192.9917,193.4897,193.4897,194.7182,1030.8,194.7183,2,195.7165,0,13,13,22,1,1.2,0.3,Time
,,182072,001,,,2025-05-19_19h59.07.529,Serial_Dependence_U,2023.2.3,Win32,238.0952381,6776816f12ad2c97726dd2ab,68224bc8a476e0f1ff0bf7fa,682b7e5e68da843fe2e2d427,,,,,,,,,,,,195.7167,0,195.7167,,,,198.2259,198.7264,197.7239,198.2258,196.7203,147,197.7238,198.7264,199.2268,199.2269,200.141,635.8,200.141,1,201.141,0,14,14,1,1,1,0.3,Time
,,182072,001,,,2025-05-19_19h59.07.529,Serial_Dependence_U,2023.2.3,Win32,238.0952381,6776816f12ad2c97726dd2ab,68224bc8a476e0f1ff0bf7fa,682b7e5e68da843fe2e2d427,,,,,,,,,,,,201.1411,0,201.1413,,,,203.8483,204.3482,203.345,203.8482,202.1422,229,203.3449,204.3482,204.8466,204.8466,205.6679,711.7,205.668,1,206.6653,0,15,15,17,1,1.2,0.7,Time
,,182072,001,,,2025-05-19_19h59.07.529,Serial_Dependence_U,2023.2.3,Win32,238.0952381,6776816f12ad2c97726dd2ab,68224bc8a476e0f1ff0bf7fa,682b7e5e68da843fe2e2d427,,,,,,,,,,,,206.6655,0,206.6655,,,,208.9746,209.4726,208.4737,208.9745,207.6661,251,208.4736,209.4726,209.9703,209.9704,210.7504,471.3,210.7505,1,211.7481,0,16,16,5,1,0.8,0.7,Time
,,182072,001,,,2025-05-19_19h59.07.529,Serial_Dependence_U,2023.2.3,Win32,238.0952381,6776816f12ad2c97726dd2ab,68224bc8a476e0f1ff0bf7fa,682b7e5e68da843fe2e2d427,,,,,,,,,,,,211.7484,0,211.7484,,,,214.8544,215.3519,214.3538,214.8543,212.7524,206,214.3538,215.3519,215.8528,215.8529,217.0689,995.9,217.069,1,218.0631,0,17,17,4,1,1.6,0.3,Time
,,182072,001,,,2025-05-19_19h59.07.529,Serial_Dependence_U,2023.2.3,Win32,238.0952381,6776816f12ad2c97726dd2ab,68224bc8a476e0f1ff0bf7fa,682b7e5e68da843fe2e2d427,,,,,,,,,,,,218.0633,0,218.0634,,,,220.5684,221.0661,220.0653,220.5682,219.0644,53,220.0653,221.0661,221.5652,221.5653,222.7661,889.7,222.7662,2,223.7672,0,18,18,11,1,1,0.3,Time
,,182072,001,,,2025-05-19_19h59.07.529,Serial_Dependence_U,2023.2.3,Win32,238.0952381,6776816f12ad2c97726dd2ab,68224bc8a476e0f1ff0bf7fa,682b7e5e68da843fe2e2d427,,,,,,,,,,,,223.7675,0,223.7675,,,,226.6785,227.1786,226.1756,226.6784,224.7682,166,226.1755,227.1786,227.6772,227.6772,228.7862,866.7,228.7863,1,229.7902,0,19,19,23,1,1.4,0.3,Time
,,182072,001,,,2025-05-19_19h59.07.529,Serial_Dependence_U,2023.2.3,Win32,238.0952381,6776816f12ad2c97726dd2ab,68224bc8a476e0f1ff0bf7fa,682b7e5e68da843fe2e2d427,,,,,,,,,,,,229.7905,0,229.7906,,,,232.2987,232.7981,231.7975,232.2987,230.795,358,231.7974,232.7982,233.2986,233.2987,234.3608,814.2,234.3609,2,235.359,0,20,20,21,1,1,0.3,Time
,,182072,001,,,2025-05-19_19h59.07.529,Serial_Dependence_U,2023.2.3,Win32,238.0952381,6776816f12ad2c97726dd2ab,68224bc8a476e0f1ff0bf7fa,682b7e5e68da843fe2e2d427,,,,,,,,,,,,235.3593,0,235.3593,,,,237.6653,238.1675,237.1634,237.6653,236.3621,118,237.1634,238.1676,238.6647,238.6648,239.5739,622.3,239.574,2,240.5722,0,21,21,10,1,0.8,0.3,Time
,,182072,001,,,2025-05-19_19h59.07.529,Serial_Dependence_U,2023.2.3,Win32,238.0952381,6776816f12ad2c97726dd2ab,68224bc8a476e0f1ff0bf7fa,682b7e5e68da843fe2e2d427,,,,,,,,,,,,240.5724,0,240.5725,,,,243.6801,244.1796,243.1777,243.68,241.5764,349,243.1776,244.1797,244.6804,244.6804,246.2364,1325.1,246.2365,2,247.2328,0,22,22,9,1,1.6,0.7,Time
,,182072,001,,,2025-05-19_19h59.07.529,Serial_Dependence_U,2023.2.3,Win32,238.0952381,6776816f12ad2c97726dd2ab,68224bc8a476e0f1ff0bf7fa,682b7e5e68da843fe2e2d427,,,,,,,,,,,,247.233,0,247.2331,,,,250.3435,250.8452,249.8358,250.3434,248.2346,125,249.8356,250.8453,251.3452,251.3452,252.7745,1113.5,252.7747,1,253.7729,0,23,23,19,1,1.6,0.7,Time
,,182072,001,,,2025-05-19_19h59.07.529,Serial_Dependence_U,2023.2.3,Win32,238.0952381,6776816f12ad2c97726dd2ab,68224bc8a476e0f1ff0bf7fa,682b7e5e68da843fe2e2d427,,,,,,,,,,,,253.7731,0,253.7731,,,,256.4746,256.9743,255.9735,256.4745,254.7724,78,255.9734,256.9743,257.4743,257.4743,258.9344,1013.1,258.9345,2,259.9324,0,24,24,2,1,1.2,0.3,Time
,,182072,001,,,2025-05-19_19h59.07.529,Serial_Dependence_U,2023.2.3,Win32,238.0952381,6776816f12ad2c97726dd2ab,68224bc8a476e0f1ff0bf7fa,682b7e5e68da843fe2e2d427,,,,,,,,,,,,259.9328,0,259.9329,,,,262.6381,263.1357,262.1375,262.638,260.934,96,262.1375,263.1358,263.6396,263.6396,264.7909,859.5,264.791,2,265.7901,0,25,25,12,1,1.2,0.3,Time
,,182072,001,,,2025-05-19_19h59.07.529,Serial_Dependence_U,2023.2.3,Win32,238.0952381,6776816f12ad2c97726dd2ab,68224bc8a476e0f1ff0bf7fa,682b7e5e68da843fe2e2d427,,,,,,,,,,,,265.7903,0,265.7904,,,,268.0934,268.5909,267.5904,268.0932,266.7898,304,267.5903,268.5909,269.0891,269.0891,270.0159,640.5,270.016,2,271.0168,0,26,26,20,1,0.8,0.3,Time
,,182072,001,,,2025-05-19_19h59.07.529,Serial_Dependence_U,2023.2.3,Win32,238.0952381,6776816f12ad2c97726dd2ab,68224bc8a476e0f1ff0bf7fa,682b7e5e68da843fe2e2d427,,,,,,,,,,,,271.017,0,271.0171,,,,273.3192,273.8198,272.819,273.3192,272.018,91,272.8189,273.8198,274.3175,274.3175,275.2587,672.8,275.2588,2,276.2593,0,27,27,15,1,0.8,0.7,Time
,,182072,001,,,2025-05-19_19h59.07.529,Serial_Dependence_U,2023.2.3,Win32,238.0952381,6776816f12ad2c97726dd2ab,68224bc8a476e0f1ff0bf7fa,682b7e5e68da843fe2e2d427,,,,,,,,,,,,276.2596,0,276.2596,,,,279.3681,279.869,278.8664,279.368,277.2626,348,278.8664,279.869,280.3688,280.3688,281.5187,936.4,281.5188,1,282.517,0,28,28,14,1,1.6,0.3,Time
,,182072,001,,,2025-05-19_19h59.07.529,Serial_Dependence_U,2023.2.3,Win32,238.0952381,6776816f12ad2c97726dd2ab,68224bc8a476e0f1ff0bf7fa,682b7e5e68da843fe2e2d427,,,,,,,,,,,,282.5172,0,282.5172,,,,285.4217,285.9145,284.9195,285.4217,283.5166,47,284.9194,285.9145,286.4153,286.4153,287.4583,895.8,287.4584,1,288.4589,0,29,29,13,1,1.4,0.3,Time
,,182072,001,,,2025-05-19_19h59.07.529,Serial_Dependence_U,2023.2.3,Win32,238.0952381,6776816f12ad2c97726dd2ab,68224bc8a476e0f1ff0bf7fa,682b7e5e68da843fe2e2d427,,,,,,,,,,,,288.4591,1,576.9188,s,288.454,,579.8279,580.3281,579.3271,579.8279,577.9179,69,579.3269,580.3281,580.8289,580.8289,582.2425,949.6,582.2426,1,583.243,1,0,30,3,1,1.4,0.3,Time
,,182072,001,,,2025-05-19_19h59.07.529,Serial_Dependence_U,2023.2.3,Win32,238.0952381,6776816f12ad2c97726dd2ab,68224bc8a476e0f1ff0bf7fa,682b7e5e68da843fe2e2d427,,,,,,,,,,,,583.2432,1,583.244,,,,586.3511,586.8484,585.8506,586.351,584.2462,338,585.8505,586.8484,587.3453,587.3453,588.8246,1114.6,588.8249,1,589.8248,1,1,31,24,1,1.6,0.3,Time
,,182072,001,,,2025-05-19_19h59.07.529,Serial_Dependence_U,2023.2.3,Win32,238.0952381,6776816f12ad2c97726dd2ab,68224bc8a476e0f1ff0bf7fa,682b7e5e68da843fe2e2d427,,,,,,,,,,,,589.825,1,589.825,,,,592.9339,593.4327,592.4317,592.9337,590.8278,251,592.4317,593.4327,593.9304,593.9304,595.1758,882,595.176,1,596.1767,1,2,32,9,1,1.6,0.7,Time
,,182072,001,,,2025-05-19_19h59.07.529,Serial_Dependence_U,2023.2.3,Win32,238.0952381,6776816f12ad2c97726dd2ab,68224bc8a476e0f1ff0bf7fa,682b7e5e68da843fe2e2d427,,,,,,,,,,,,596.177,1,596.1771,,,,598.6794,599.1769,598.1788,598.6793,597.1757,263,598.1788,599.1769,599.6804,599.6805,600.7107,705.9,600.7108,2,601.7115,1,3,33,6,1,1,0.7,Time
,,182072,001,,,2025-05-19_19h59.07.529,Serial_Dependence_U,2023.2.3,Win32,238.0952381,6776816f12ad2c97726dd2ab,68224bc8a476e0f1ff0bf7fa,682b7e5e68da843fe2e2d427,,,,,,,,,,,,601.7117,1,601.7118,,,,604.0148,604.514,603.5134,604.0148,602.7125,280,603.5133,604.514,605.0144,605.0144,605.9364,606.3,605.9365,2,606.9371,1,4,34,20,1,0.8,0.3,Time
,,182072,001,,,2025-05-19_19h59.07.529,Serial_Dependence_U,2023.2.3,Win32,238.0952381,6776816f12ad2c97726dd2ab,68224bc8a476e0f1ff0bf7fa,682b7e5e68da843fe2e2d427,,,,,,,,,,,,606.9373,1,606.9374,,,,609.6441,610.142,609.1419,609.6441,607.9391,59,609.1418,610.142,610.6407,610.6408,611.617,663.8,611.6171,1,612.6169,1,5,35,2,1,1.2,0.3,Time
,,182072,001,,,2025-05-19_19h59.07.529,Serial_Dependence_U,2023.2.3,Win32,238.0952381,6776816f12ad2c97726dd2ab,68224bc8a476e0f1ff0bf7fa,682b7e5e68da843fe2e2d427,,,,,,,,,,,,612.6171,1,612.6171,,,,615.5251,616.0239,615.0228,615.525,613.6222,314,615.0227,616.024,616.5214,616.5214,617.8239,1024.5,617.824,2,618.8241,1,6,36,28,1,1.4,0.7,Time
,,182072,001,,,2025-05-19_19h59.07.529,Serial_Dependence_U,2023.2.3,Win32,238.0952381,6776816f12ad2c97726dd2ab,68224bc8a476e0f1ff0bf7fa,682b7e5e68da843fe2e2d427,,,,,,,,,,,,618.8243,1,618.8244,,,,621.729,622.2269,621.2261,621.7288,619.8251,318,621.2261,622.2269,622.7247,622.7248,624.2747,1260.8,624.2749,2,625.2721,1,7,37,8,1,1.4,0.7,Time
,,182072,001,,,2025-05-19_19h59.07.529,Serial_Dependence_U,2023.2.3,Win32,238.0952381,6776816f12ad2c97726dd2ab,68224bc8a476e0f1ff0bf7fa,682b7e5e68da843fe2e2d427,,,,,,,,,,,,625.2724,1,625.2725,,,,628.3791,628.8794,627.8761,628.379,626.2727,82,627.876,628.8794,629.3773,629.3773,630.9646,1269.9,630.9647,2,631.9615,1,8,38,29,1,1.6,0.7,Time
,,182072,001,,,2025-05-19_19h59.07.529,Serial_Dependence_U,2023.2.3,Win32,238.0952381,6776816f12ad2c97726dd2ab,68224bc8a476e0f1ff0bf7fa,682b7e5e68da843fe2e2d427,,,,,,,,,,,,631.9618,1,631.9619,,,,634.4664,634.9676,633.9635,634.4663,632.9627,257,633.9634,634.9676,635.4647,635.4647,636.4116,712.9,636.4117,2,637.41,1,9,39,1,1,1,0.3,Time
,,182072,001,,,2025-05-19_19h59.07.529,Serial_Dependence_U,2023.2.3,Win32,238.0952381,6776816f12ad2c97726dd2ab,68224bc8a476e0f1ff0bf7fa,682b7e5e68da843fe2e2d427,,,,,,,,,,,,637.4102,1,637.4102,,,,640.3199,640.8201,639.8167,640.3198,638.4136,213,639.8166,640.8201,641.3179,641.3179,642.8512,1194.9,642.8515,2,643.852,1,10,40,13,1,1.4,0.3,Time
,,182072,001,,,2025-05-19_19h59.07.529,Serial_Dependence_U,2023.2.3,Win32,238.0952381,6776816f12ad2c97726dd2ab,68224bc8a476e0f1ff0bf7fa,682b7e5e68da843fe2e2d427,,,,,,,,,,,,643.8522,1,643.8523,,,,646.1544,646.6522,645.6539,646.1542,644.8535,352,645.6538,646.6522,647.1526,647.1526,648.0019,621.4,648.002,2,649.0028,1,11,41,5,1,0.8,0.7,Time
,,182072,001,,,2025-05-19_19h59.07.529,Serial_Dependence_U,2023.2.3,Win32,238.0952381,6776816f12ad2c97726dd2ab,68224bc8a476e0f1ff0bf7fa,682b7e5e68da843fe2e2d427,,,,,,,,,,,,649.0031,1,649.0031,,,,652.1146,652.6149,651.6105,652.1146,650.004,4,651.6104,652.6149,653.1124,653.1124,654.8042,1440.3,654.8044,2,655.8024,1,12,42,19,1,1.6,0.7,Time
,,182072,001,,,2025-05-19_19h59.07.529,Serial_Dependence_U,2023.2.3,Win32,238.0952381,6776816f12ad2c97726dd2ab,68224bc8a476e0f1ff0bf7fa,682b7e5e68da843fe2e2d427,,,,,,,,,,,,655.8026,1,655.8026,,,,658.1036,658.6037,657.6031,658.1035,656.8022,176,657.6028,658.6037,659.1014,659.1014,659.9401,716.6,659.9402,2,660.9396,1,13,43,0,1,0.8,0.3,Time
,,182072,001,,,2025-05-19_19h59.07.529,Serial_Dependence_U,2023.2.3,Win32,238.0952381,6776816f12ad2c97726dd2ab,68224bc8a476e0f1ff0bf7fa,682b7e5e68da843fe2e2d427,,,,,,,,,,,,660.9399,1,660.9399,,,,663.6445,664.1441,663.1434,663.6445,661.9416,184,663.1433,664.1441,664.6446,664.6446,665.9027,1093.7,665.9028,2,666.9005,1,14,44,22,1,1.2,0.3,Time
,,182072,001,,,2025-05-19_19h59.07.529,Serial_Dependence_U,2023.2.3,Win32,238.0952381,6776816f12ad2c97726dd2ab,68224bc8a476e0f1ff0bf7fa,682b7e5e68da843fe2e2d427,,,,,,,,,,,,666.9007,1,666.9007,,,,670.0057,670.5029,669.5022,670.0056,667.9006,31,669.5021,670.5029,671.0006,671.0006,672.7883,1478.4,672.7884,2,673.7879,1,15,45,14,1,1.6,0.3,Time
,,182072,001,,,2025-05-19_19h59.07.529,Serial_Dependence_U,2023.2.3,Win32,238.0952381,6776816f12ad2c97726dd2ab,68224bc8a476e0f1ff0bf7fa,682b7e5e68da843fe2e2d427,,,,,,,,,,,,673.7881,1,673.7881,,,,676.6923,677.1925,676.1917,676.6922,674.7904,192,676.1916,677.1925,677.691,677.691,679.3823,1355.4,679.3825,3,680.3807,1,16,46,18,1,1.4,0.7,Time
,,182072,001,,,2025-05-19_19h59.07.529,Serial_Dependence_U,2023.2.3,Win32,238.0952381,6776816f12ad2c97726dd2ab,68224bc8a476e0f1ff0bf7fa,682b7e5e68da843fe2e2d427,,,,,,,,,,,,680.3809,1,680.381,,,,682.6888,683.1858,682.185,682.6887,681.3819,203,682.1849,683.1858,683.6836,683.6836,684.4415,561.8,684.4416,2,685.4395,1,17,47,15,1,0.8,0.7,Time
,,182072,001,,,2025-05-19_19h59.07.529,Serial_Dependence_U,2023.2.3,Win32,238.0952381,6776816f12ad2c97726dd2ab,68224bc8a476e0f1ff0bf7fa,682b7e5e68da843fe2e2d427,,,,,,,,,,,,685.4398,1,685.4398,,,,687.9448,688.442,687.4417,687.9447,686.4391,293,687.4417,688.4421,688.9398,688.9398,690.1116,898.6,690.1116,2,691.1114,1,18,48,21,1,1,0.3,Time
,,182072,001,,,2025-05-19_19h59.07.529,Serial_Dependence_U,2023.2.3,Win32,238.0952381,6776816f12ad2c97726dd2ab,68224bc8a476e0f1ff0bf7fa,682b7e5e68da843fe2e2d427,,,,,,,,,,,,691.1117,1,691.1118,,,,693.417,693.9142,692.9141,693.4169,692.1131,37,692.9141,693.9142,694.4133,694.4133,695.3684,692.1,695.3685,2,696.3693,1,19,49,10,1,0.8,0.3,Time
,,182072,001,,,2025-05-19_19h59.07.529,Serial_Dependence_U,2023.2.3,Win32,238.0952381,6776816f12ad2c97726dd2ab,68224bc8a476e0f1ff0bf7fa,682b7e5e68da843fe2e2d427,,,,,,,,,,,,696.3695,1,696.3696,,,,698.6678,699.1653,698.1674,698.6678,697.3666,252,698.1673,699.1654,699.6642,699.6642,700.8446,889,700.8447,4,701.8457,1,20,50,25,1,0.8,0.7,Time
,,182072,001,,,2025-05-19_19h59.07.529,Serial_Dependence_U,2023.2.3,Win32,238.0952381,6776816f12ad2c97726dd2ab,68224bc8a476e0f1ff0bf7fa,682b7e5e68da843fe2e2d427,,,,,,,,,,,,701.846,1,701.846,,,,704.5527,705.0503,704.0496,704.5526,702.8469,312,704.0495,705.0503,705.5509,705.5509,706.834,971.6,706.8341,2,707.832,1,21,51,17,1,1.2,0.7,Time
,,182072,001,,,2025-05-19_19h59.07.529,Serial_Dependence_U,2023.2.3,Win32,238.0952381,6776816f12ad2c97726dd2ab,68224bc8a476e0f1ff0bf7fa,682b7e5e68da843fe2e2d427,,,,,,,,,,,,707.8323,1,707.8324,,,,710.5376,711.0351,710.037,710.5374,708.8358,288,710.0369,711.0352,711.5357,711.5357,713.0081,1196.4,713.0081,3,714.0072,1,22,52,27,1,1.2,0.7,Time
,,182072,001,,,2025-05-19_19h59.07.529,Serial_Dependence_U,2023.2.3,Win32,238.0952381,6776816f12ad2c97726dd2ab,68224bc8a476e0f1ff0bf7fa,682b7e5e68da843fe2e2d427,,,,,,,,,,,,714.0075,1,714.0076,,,,716.5157,717.0143,716.0136,716.5157,715.0087,288,716.0135,717.0144,717.5148,717.5149,718.7662,931.3,718.7663,2,719.7644,1,23,53,26,1,1,0.7,Time
,,182072,001,,,2025-05-19_19h59.07.529,Serial_Dependence_U,2023.2.3,Win32,238.0952381,6776816f12ad2c97726dd2ab,68224bc8a476e0f1ff0bf7fa,682b7e5e68da843fe2e2d427,,,,,,,,,,,,719.7645,1,719.7647,,,,722.4744,722.9742,721.9725,722.4744,720.7681,320,721.9725,722.9742,723.4747,723.4747,724.8763,1153,724.8764,3,725.8751,1,24,54,12,1,1.2,0.3,Time
,,182072,001,,,2025-05-19_19h59.07.529,Serial_Dependence_U,2023.2.3,Win32,238.0952381,6776816f12ad2c97726dd2ab,68224bc8a476e0f1ff0bf7fa,682b7e5e68da843fe2e2d427,,,,,,,,,,,,725.8754,1,725.8754,,,,728.982,729.482,728.4797,728.9819,726.8784,154,728.4797,729.4821,729.9826,729.9827,731.5549,1259.1,731.5551,2,732.5543,1,25,55,4,1,1.6,0.3,Time
,,182072,001,,,2025-05-19_19h59.07.529,Serial_Dependence_U,2023.2.3,Win32,238.0952381,6776816f12ad2c97726dd2ab,68224bc8a476e0f1ff0bf7fa,682b7e5e68da843fe2e2d427,,,,,,,,,,,,732.5545,1,732.5545,,,,735.0613,735.5593,734.5609,735.0613,733.5596,274,734.5608,735.5593,736.0577,736.0577,737.5259,1196.3,737.5259,4,738.5268,1,26,56,11,1,1,0.3,Time
,,182072,001,,,2025-05-19_19h59.07.529,Serial_Dependence_U,2023.2.3,Win32,238.0952381,6776816f12ad2c97726dd2ab,68224bc8a476e0f1ff0bf7fa,682b7e5e68da843fe2e2d427,,,,,,,,,,,,738.5271,1,738.5271,,,,741.0338,741.5312,740.5326,741.0338,739.5317,134,740.5325,741.5312,742.0301,742.0302,743.2147,897.4,743.2148,2,744.2132,1,27,57,16,1,1,0.7,Time
,,182072,001,,,2025-05-19_19h59.07.529,Serial_Dependence_U,2023.2.3,Win32,238.0952381,6776816f12ad2c97726dd2ab,68224bc8a476e0f1ff0bf7fa,682b7e5e68da843fe2e2d427,,,,,,,,,,,,744.2135,1,744.2135,,,,746.9187,747.4189,746.416,746.9185,745.2141,162,746.4159,747.4189,747.9166,747.9166,749.2959,1133.2,749.296,2,750.2937,1,28,58,7,1,1.2,0.7,Time
,,182072,001,,,2025-05-19_19h59.07.529,Serial_Dependence_U,2023.2.3,Win32,238.0952381,6776816f12ad2c97726dd2ab,68224bc8a476e0f1ff0bf7fa,682b7e5e68da843fe2e2d427,,,,,,,,,,,,750.2938,1,750.294,,,,753.1954,753.6943,752.6948,753.1952,751.2935,154,752.6948,753.6943,754.1897,754.1897,755.8905,1421.3,755.8907,3,756.8905,1,29,59,23,1,1.4,0.3,Time
,,182072,001,,,2025-05-19_19h59.07.529,Serial_Dependence_U,2023.2.3,Win32,238.0952381,6776816f12ad2c97726dd2ab,68224bc8a476e0f1ff0bf7fa,682b7e5e68da843fe2e2d427,,,,,,,,,,,,756.8908,2,758.7103,s,1.8139,,761.8098,762.308,761.3091,761.8098,759.7084,140,761.3091,762.308,762.8069,762.8069,764.8261,1663.4,764.8262,3,765.8242,2,0,60,9,1,1.6,0.7,Time
,,182072,001,,,2025-05-19_19h59.07.529,Serial_Dependence_U,2023.2.3,Win32,238.0952381,6776816f12ad2c97726dd2ab,68224bc8a476e0f1ff0bf7fa,682b7e5e68da843fe2e2d427,,,,,,,,,,,,765.8244,2,765.825,,,,768.3325,768.8311,767.8318,768.3325,766.8293,188,767.8317,768.8311,769.3315,769.3315,770.6623,1079.8,770.6624,4,771.6607,2,1,61,6,1,1,0.7,Time
,,182072,001,,,2025-05-19_19h59.07.529,Serial_Dependence_U,2023.2.3,Win32,238.0952381,6776816f12ad2c97726dd2ab,68224bc8a476e0f1ff0bf7fa,682b7e5e68da843fe2e2d427,,,,,,,,,,,,771.6609,2,771.6611,,,,774.3658,774.8644,773.8652,774.3658,772.6643,290,773.8652,774.8644,775.3627,775.3627,776.568,1089.3,776.568,2,777.5658,2,2,62,17,1,1.2,0.7,Time
,,182072,001,,,2025-05-19_19h59.07.529,Serial_Dependence_U,2023.2.3,Win32,238.0952381,6776816f12ad2c97726dd2ab,68224bc8a476e0f1ff0bf7fa,682b7e5e68da843fe2e2d427,,,,,,,,,,,,777.5659,2,777.5661,,,,780.0726,780.5716,779.5707,780.0725,778.5674,314,779.5707,780.5716,781.073,781.073,782.6248,1303.2,782.6248,5,783.6204,2,3,63,21,1,1,0.3,Time
,,182072,001,,,2025-05-19_19h59.07.529,Serial_Dependence_U,2023.2.3,Win32,238.0952381,6776816f12ad2c97726dd2ab,68224bc8a476e0f1ff0bf7fa,682b7e5e68da843fe2e2d427,,,,,,,,,,,,783.6207,2,783.6207,,,,785.9238,786.4232,785.4228,785.9237,784.6215,201,785.4227,786.4233,786.922,786.922,787.5951,601.9,787.5952,2,788.5963,2,4,64,15,1,0.8,0.7,Time
,,182072,001,,,2025-05-19_19h59.07.529,Serial_Dependence_U,2023.2.3,Win32,238.0952381,6776816f12ad2c97726dd2ab,68224bc8a476e0f1ff0bf7fa,682b7e5e68da843fe2e2d427,,,,,,,,,,,,788.5965,2,788.5965,,,,790.8987,791.3963,790.3981,790.8986,789.5974,44,790.3981,791.3963,791.8952,791.8952,792.8251,706.9,792.8253,2,793.8235,2,5,65,25,1,0.8,0.7,Time
,,182072,001,,,2025-05-19_19h59.07.529,Serial_Dependence_U,2023.2.3,Win32,238.0952381,6776816f12ad2c97726dd2ab,68224bc8a476e0f1ff0bf7fa,682b7e5e68da843fe2e2d427,,,,,,,,,,,,793.8238,2,793.8239,,,,796.7283,797.2293,796.2244,796.7283,794.823,156,796.2243,797.2294,797.7298,797.7298,799.4151,1354.7,799.4152,3,800.4134,2,6,66,3,1,1.4,0.3,Time
,,182072,001,,,2025-05-19_19h59.07.529,Serial_Dependence_U,2023.2.3,Win32,238.0952381,6776816f12ad2c97726dd2ab,68224bc8a476e0f1ff0bf7fa,682b7e5e68da843fe2e2d427,,,,,,,,,,,,800.4136,2,800.4137,,,,802.7184,803.2185,802.2154,802.7183,801.4145,142,802.2153,803.2185,803.7163,803.7163,805.0415,1007.7,805.0416,4,806.0419,2,7,67,0,1,0.8,0.3,Time
,,182072,001,,,2025-05-19_19h59.07.529,Serial_Dependence_U,2023.2.3,Win32,238.0952381,6776816f12ad2c97726dd2ab,68224bc8a476e0f1ff0bf7fa,682b7e5e68da843fe2e2d427,,,,,,,,,,,,806.0422,2,806.0423,,,,808.7463,809.2473,808.2443,808.7463,807.0432,270,808.2442,809.2473,809.7469,809.747,811.0719,1000.6,811.072,2,812.0734,2,8,68,27,1,1.2,0.7,Time
,,182072,001,,,2025-05-19_19h59.07.529,Serial_Dependence_U,2023.2.3,Win32,238.0952381,6776816f12ad2c97726dd2ab,68224bc8a476e0f1ff0bf7fa,682b7e5e68da843fe2e2d427,,,,,,,,,,,,812.0737,2,812.0737,,,,815.1834,815.682,814.6775,815.1833,813.0761,316,814.6774,815.682,816.1824,816.1824,818.058,1463.5,818.058,2,819.0579,2,9,69,29,1,1.6,0.7,Time
,,182072,001,,,2025-05-19_19h59.07.529,Serial_Dependence_U,2023.2.3,Win32,238.0952381,6776816f12ad2c97726dd2ab,68224bc8a476e0f1ff0bf7fa,682b7e5e68da843fe2e2d427,,,,,,,,,,,,819.0581,2,819.0581,,,,821.3626,821.8615,820.8606,821.3625,820.0599,141,820.8605,821.8615,822.3622,822.3623,823.53,875.9,823.5301,4,824.5309,2,10,70,20,1,0.8,0.3,Time
,,182072,001,,,2025-05-19_19h59.07.529,Serial_Dependence_U,2023.2.3,Win32,238.0952381,6776816f12ad2c97726dd2ab,68224bc8a476e0f1ff0bf7fa,682b7e5e68da843fe2e2d427,,,,,,,,,,,,824.5312,2,824.5313,,,,827.4399,827.9382,826.9373,827.4398,825.5342,256,826.9373,827.9382,828.4359,828.4359,830.1529,1409.2,830.1531,3,831.1515,2,11,71,13,1,1.4,0.3,Time
,,182072,001,,,2025-05-19_19h59.07.529,Serial_Dependence_U,2023.2.3,Win32,238.0952381,6776816f12ad2c97726dd2ab,68224bc8a476e0f1ff0bf7fa,682b7e5e68da843fe2e2d427,,,,,,,,,,,,831.1517,2,831.1518,,,,833.8565,834.3573,833.3561,833.8564,832.1525,60,833.356,834.3573,834.8573,834.8574,836.6341,1463.5,836.6342,4,837.635,2,12,72,22,1,1.2,0.3,Time
,,182072,001,,,2025-05-19_19h59.07.529,Serial_Dependence_U,2023.2.3,Win32,238.0952381,6776816f12ad2c97726dd2ab,68224bc8a476e0f1ff0bf7fa,682b7e5e68da843fe2e2d427,,,,,,,,,,,,837.6353,2,837.6355,,,,840.7411,841.24,840.2377,840.7411,838.6362,181,840.2376,841.24,841.739,841.739,843.4245,1402.5,843.4245,2,844.4252,2,13,73,24,1,1.6,0.3,Time
,,182072,001,,,2025-05-19_19h59.07.529,Serial_Dependence_U,2023.2.3,Win32,238.0952381,6776816f12ad2c97726dd2ab,68224bc8a476e0f1ff0bf7fa,682b7e5e68da843fe2e2d427,,,,,,,,,,,,844.4254,2,844.4256,,,,847.3295,847.8297,846.8276,847.3294,845.4265,86,846.8276,847.8297,848.3286,848.3287,850.0849,1475.8,850.085,4,851.083,2,14,74,18,1,1.4,0.7,Time
,,182072,001,,,2025-05-19_19h59.07.529,Serial_Dependence_U,2023.2.3,Win32,238.0952381,6776816f12ad2c97726dd2ab,68224bc8a476e0f1ff0bf7fa,682b7e5e68da843fe2e2d427,,,,,,,,,,,,851.0831,2,851.0832,,,,853.7802,854.2805,853.2798,853.7802,852.0783,281,853.2797,854.2805,854.7782,854.7782,856.3699,1325.8,856.3701,4,857.37,2,15,75,12,1,1.2,0.3,Time
,,182072,001,,,2025-05-19_19h59.07.529,Serial_Dependence_U,2023.2.3,Win32,238.0952381,6776816f12ad2c97726dd2ab,68224bc8a476e0f1ff0bf7fa,682b7e5e68da843fe2e2d427,,,,,,,,,,,,857.3702,2,857.3703,,,,860.0697,860.5697,859.5689,860.0696,858.3678,231,859.5688,860.5697,861.0702,861.0703,862.5258,1254.7,862.5259,3,863.5239,2,16,76,2,1,1.2,0.3,Time
,,182072,001,,,2025-05-19_19h59.07.529,Serial_Dependence_U,2023.2.3,Win32,238.0952381,6776816f12ad2c97726dd2ab,68224bc8a476e0f1ff0bf7fa,682b7e5e68da843fe2e2d427,,,,,,,,,,,,863.5241,2,863.5242,,,,866.6302,867.1303,866.1297,866.6301,864.5254,196,866.1296,867.1303,867.6282,867.6282,869.2656,1398,869.2657,2,870.2641,2,17,77,4,1,1.6,0.3,Time
,,182072,001,,,2025-05-19_19h59.07.529,Serial_Dependence_U,2023.2.3,Win32,238.0952381,6776816f12ad2c97726dd2ab,68224bc8a476e0f1ff0bf7fa,682b7e5e68da843fe2e2d427,,,,,,,,,,,,870.2644,2,870.2644,,,,872.5741,873.0736,872.0687,872.574,871.2681,355,872.0687,873.0737,873.5717,873.5717,874.5335,728,874.5336,2,875.5312,2,18,78,5,1,0.8,0.7,Time
,,182072,001,,,2025-05-19_19h59.07.529,Serial_Dependence_U,2023.2.3,Win32,238.0952381,6776816f12ad2c97726dd2ab,68224bc8a476e0f1ff0bf7fa,682b7e5e68da843fe2e2d427,,,,,,,,,,,,875.5315,2,875.5315,,,,878.039,878.541,877.5366,878.0388,876.533,289,877.5365,878.5411,879.0417,879.0418,880.4473,1178,880.4474,4,881.4482,2,19,79,26,1,1,0.7,Time
,,182072,001,,,2025-05-19_19h59.07.529,Serial_Dependence_U,2023.2.3,Win32,238.0952381,6776816f12ad2c97726dd2ab,68224bc8a476e0f1ff0bf7fa,682b7e5e68da843fe2e2d427,,,,,,,,,,,,881.4484,2,881.4485,,,,884.5517,885.049,884.0492,884.5516,882.4476,110,884.0491,885.049,885.5482,885.5482,887.129,1349.5,887.1292,2,888.1273,2,20,80,14,1,1.6,0.3,Time
,,182072,001,,,2025-05-19_19h59.07.529,Serial_Dependence_U,2023.2.3,Win32,238.0952381,6776816f12ad2c97726dd2ab,68224bc8a476e0f1ff0bf7fa,682b7e5e68da843fe2e2d427,,,,,,,,,,,,888.1275,2,888.1277,,,,891.0287,891.529,890.5282,891.0287,889.1269,228,890.5281,891.529,892.0295,892.0295,893.5476,1424.6,893.5478,3,894.5486,2,21,81,23,1,1.4,0.3,Time
,,182072,001,,,2025-05-19_19h59.07.529,Serial_Dependence_U,2023.2.3,Win32,238.0952381,6776816f12ad2c97726dd2ab,68224bc8a476e0f1ff0bf7fa,682b7e5e68da843fe2e2d427,,,,,,,,,,,,894.5489,2,894.549,,,,897.6568,898.1587,897.1553,897.6568,895.5513,35,897.1553,898.1587,898.6568,898.6568,900.4542,1560.7,900.4543,3,901.4579,2,22,82,19,1,1.6,0.7,Time
,,182072,001,,,2025-05-19_19h59.07.529,Serial_Dependence_U,2023.2.3,Win32,238.0952381,6776816f12ad2c97726dd2ab,68224bc8a476e0f1ff0bf7fa,682b7e5e68da843fe2e2d427,,,,,,,,,,,,901.4581,2,901.4582,,,,904.1665,904.6667,903.6617,904.1664,902.4606,254,903.6617,904.6667,905.1669,905.1669,906.9357,1530.7,906.9358,4,907.9365,2,23,83,7,1,1.2,0.7,Time
,,182072,001,,,2025-05-19_19h59.07.529,Serial_Dependence_U,2023.2.3,Win32,238.0952381,6776816f12ad2c97726dd2ab,68224bc8a476e0f1ff0bf7fa,682b7e5e68da843fe2e2d427,,,,,,,,,,,,907.9367,2,907.9369,,,,910.4433,910.9409,909.9428,910.4433,908.9414,26,909.9427,910.9409,911.4384,911.4384,912.6786,1016.4,912.6788,3,913.6796,2,24,84,1,1,1,0.3,Time
,,182072,001,,,2025-05-19_19h59.07.529,Serial_Dependence_U,2023.2.3,Win32,238.0952381,6776816f12ad2c97726dd2ab,68224bc8a476e0f1ff0bf7fa,682b7e5e68da843fe2e2d427,,,,,,,,,,,,913.6797,2,913.6798,,,,916.1864,916.6839,915.6832,916.1862,914.6806,13,915.6831,916.6839,917.1828,917.1828,918.4799,1106.4,918.4799,4,919.4784,2,25,85,11,1,1,0.3,Time
,,182072,001,,,2025-05-19_19h59.07.529,Serial_Dependence_U,2023.2.3,Win32,238.0952381,6776816f12ad2c97726dd2ab,68224bc8a476e0f1ff0bf7fa,682b7e5e68da843fe2e2d427,,,,,,,,,,,,919.4787,2,919.4788,,,,921.9834,922.4811,921.4829,921.9833,920.482,308,921.4828,922.4811,922.9814,922.9814,924.4129,1205.6,924.413,4,925.4117,2,26,86,16,1,1,0.7,Time
,,182072,001,,,2025-05-19_19h59.07.529,Serial_Dependence_U,2023.2.3,Win32,238.0952381,6776816f12ad2c97726dd2ab,68224bc8a476e0f1ff0bf7fa,682b7e5e68da843fe2e2d427,,,,,,,,,,,,925.412,2,925.4121,,,,927.7142,928.2145,927.2137,927.7141,926.411,77,927.2136,928.2145,928.7149,928.7149,929.9328,1037.8,929.933,4,930.9312,2,27,87,10,1,0.8,0.3,Time
,,182072,001,,,2025-05-19_19h59.07.529,Serial_Dependence_U,2023.2.3,Win32,238.0952381,6776816f12ad2c97726dd2ab,68224bc8a476e0f1ff0bf7fa,682b7e5e68da843fe2e2d427,,,,,,,,,,,,930.9314,2,930.9315,,,,933.8347,934.3329,933.3321,933.8347,931.9305,21,933.3321,934.3329,934.8334,934.8334,936.4684,1431.9,936.4685,3,937.4689,2,28,88,28,1,1.4,0.7,Time
,,182072,001,,,2025-05-19_19h59.07.529,Serial_Dependence_U,2023.2.3,Win32,238.0952381,6776816f12ad2c97726dd2ab,68224bc8a476e0f1ff0bf7fa,682b7e5e68da843fe2e2d427,,,,,,,,,,,,937.4692,2,937.4693,,,,940.3721,940.8698,939.8715,940.372,938.4703,120,939.8715,940.8698,941.3688,941.3688,942.8433,1343.5,942.8434,3,943.8452,2,29,89,8,1,1.4,0.7,Time
,,182072,001,,,2025-05-19_19h59.07.529,Serial_Dependence_U,2023.2.3,Win32,238.0952381,6776816f12ad2c97726dd2ab,68224bc8a476e0f1ff0bf7fa,682b7e5e68da843fe2e2d427,,,,,,,,,,,,943.8455,3,945.6663,s,1.8141,,948.1687,948.6692,947.6666,948.1687,946.6656,194,947.6664,948.6693,949.169,949.1691,950.5921,1209.4,950.5921,4,951.5925,3,0,90,26,1,1,0.7,Time
,,182072,001,,,2025-05-19_19h59.07.529,Serial_Dependence_U,2023.2.3,Win32,238.0952381,6776816f12ad2c97726dd2ab,68224bc8a476e0f1ff0bf7fa,682b7e5e68da843fe2e2d427,,,,,,,,,,,,951.5928,3,951.5935,,,,954.1022,954.5997,953.5993,954.1021,952.5971,104,953.5993,954.5997,955.096,955.0961,956.3525,1000.2,956.3526,3,957.3507,3,1,91,11,1,1,0.3,Time
,,182072,001,,,2025-05-19_19h59.07.529,Serial_Dependence_U,2023.2.3,Win32,238.0952381,6776816f12ad2c97726dd2ab,68224bc8a476e0f1ff0bf7fa,682b7e5e68da843fe2e2d427,,,,,,,,,,,,957.3509,3,957.351,,,,959.6615,960.1577,959.157,959.6614,958.353,183,959.157,960.1577,960.6573,960.6573,961.6674,689.3,961.6675,2,962.6655,3,2,92,25,1,0.8,0.7,Time
,,182072,001,,,2025-05-19_19h59.07.529,Serial_Dependence_U,2023.2.3,Win32,238.0952381,6776816f12ad2c97726dd2ab,68224bc8a476e0f1ff0bf7fa,682b7e5e68da843fe2e2d427,,,,,,,,,,,,962.6657,3,962.6657,,,,965.7732,966.2732,965.271,965.7731,963.6672,8,965.271,966.2733,966.7744,966.7745,968.6244,1572.3,968.6245,3,969.6235,3,3,93,14,1,1.6,0.3,Time
,,182072,001,,,2025-05-19_19h59.07.529,Serial_Dependence_U,2023.2.3,Win32,238.0952381,6776816f12ad2c97726dd2ab,68224bc8a476e0f1ff0bf7fa,682b7e5e68da843fe2e2d427,,,,,,,,,,,,969.6237,3,969.6239,,,,972.5325,973.0301,972.032,972.5324,970.6307,108,972.0319,973.0301,973.5302,973.5303,975.0805,1360.9,975.0805,3,976.0813,3,4,94,13,1,1.4,0.3,Time
,,182072,001,,,2025-05-19_19h59.07.529,Serial_Dependence_U,2023.2.3,Win32,238.0952381,6776816f12ad2c97726dd2ab,68224bc8a476e0f1ff0bf7fa,682b7e5e68da843fe2e2d427,,,,,,,,,,,,976.0815,3,976.0816,,,,978.5839,979.0841,978.0836,978.5838,977.0825,266,978.0834,979.0842,979.5824,979.5824,980.8411,1116.6,980.8412,4,981.841,3,5,95,1,1,1,0.3,Time
,,182072,001,,,2025-05-19_19h59.07.529,Serial_Dependence_U,2023.2.3,Win32,238.0952381,6776816f12ad2c97726dd2ab,68224bc8a476e0f1ff0bf7fa,682b7e5e68da843fe2e2d427,,,,,,,,,,,,981.8413,3,981.8413,,,,984.548,985.0457,984.0477,984.548,982.8457,194,984.0477,985.0457,985.5435,985.5436,986.8129,1171.4,986.8129,3,987.8108,3,6,96,12,1,1.2,0.3,Time
,,182072,001,,,2025-05-19_19h59.07.529,Serial_Dependence_U,2023.2.3,Win32,238.0952381,6776816f12ad2c97726dd2ab,68224bc8a476e0f1ff0bf7fa,682b7e5e68da843fe2e2d427,,,,,,,,,,,,987.8111,3,987.8111,,,,990.917,991.4143,990.4164,990.9168,988.8121,322,990.4164,991.4143,991.9148,991.9148,993.4834,1321.9,993.4835,2,994.481,3,7,97,4,1,1.6,0.3,Time
,,182072,001,,,2025-05-19_19h59.07.529,Serial_Dependence_U,2023.2.3,Win32,238.0952381,6776816f12ad2c97726dd2ab,68224bc8a476e0f1ff0bf7fa,682b7e5e68da843fe2e2d427,,,,,,,,,,,,994.4812,3,994.4813,,,,996.7849,997.2854,996.2846,996.7847,995.4834,203,996.2846,997.2854,997.7832,997.7832,998.8783,826.7,998.8785,3,999.8773,3,8,98,5,1,0.8,0.7,Time
,,182072,001,,,2025-05-19_19h59.07.529,Serial_Dependence_U,2023.2.3,Win32,238.0952381,6776816f12ad2c97726dd2ab,68224bc8a476e0f1ff0bf7fa,682b7e5e68da843fe2e2d427,,,,,,,,,,,,999.8776,3,999.8778,,,,1002.5796,1003.0777,1002.0775,1002.5795,1000.8763,120,1002.0774,1003.0777,1003.5777,1003.5777,1004.8636,1232.4,1004.8637,3,1005.8617,3,9,99,7,1,1.2,0.7,Time
,,182072,001,,,2025-05-19_19h59.07.529,Serial_Dependence_U,2023.2.3,Win32,238.0952381,6776816f12ad2c97726dd2ab,68224bc8a476e0f1ff0bf7fa,682b7e5e68da843fe2e2d427,,,,,,,,,,,,1005.862,3,1005.862,,,,1008.5632,1009.0631,1008.0627,1008.5631,1006.8614,1,1008.0626,1009.0631,1009.5611,1009.5611,1010.8592,1191.7,1010.8593,3,1011.8575,3,10,100,17,1,1.2,0.7,Time
,,182072,001,,,2025-05-19_19h59.07.529,Serial_Dependence_U,2023.2.3,Win32,238.0952381,6776816f12ad2c97726dd2ab,68224bc8a476e0f1ff0bf7fa,682b7e5e68da843fe2e2d427,,,,,,,,,,,,1011.8578,3,1011.8579,,,,1014.1617,1014.6617,1013.6584,1014.1617,1012.8567,279,1013.6583,1014.6618,1015.1607,1015.1608,1016.2202,795.6,1016.2202,3,1017.2171,3,11,101,15,1,0.8,0.7,Time
,,182072,001,,,2025-05-19_19h59.07.529,Serial_Dependence_U,2023.2.3,Win32,238.0952381,6776816f12ad2c97726dd2ab,68224bc8a476e0f1ff0bf7fa,682b7e5e68da843fe2e2d427,,,,,,,,,,,,1017.2174,3,1017.2175,,,,1019.7239,1020.2242,1019.2194,1019.7239,1018.2183,153,1019.2193,1020.2243,1020.7246,1020.7246,1021.8966,1037.8,1021.8966,3,1022.8974,3,12,102,16,1,1,0.7,Time
,,182072,001,,,2025-05-19_19h59.07.529,Serial_Dependence_U,2023.2.3,Win32,238.0952381,6776816f12ad2c97726dd2ab,68224bc8a476e0f1ff0bf7fa,682b7e5e68da843fe2e2d427,,,,,,,,,,,,1022.8976,3,1022.8976,,,,1025.8006,1026.298,1025.2959,1025.8006,1023.8944,206,1025.2959,1026.298,1026.7983,1026.7984,1028.1152,1048.1,1028.1153,2,1029.1129,3,13,103,8,1,1.4,0.7,Time
,,182072,001,,,2025-05-19_19h59.07.529,Serial_Dependence_U,2023.2.3,Win32,238.0952381,6776816f12ad2c97726dd2ab,68224bc8a476e0f1ff0bf7fa,682b7e5e68da843fe2e2d427,,,,,,,,,,,,1029.1131,3,1029.1132,,,,1032.2194,1032.7166,1031.7162,1032.2192,1030.1145,92,1031.7161,1032.7166,1033.216,1033.216,1034.7942,1305.3,1034.7944,2,1035.7947,3,14,104,29,1,1.6,0.7,Time
,,182072,001,,,2025-05-19_19h59.07.529,Serial_Dependence_U,2023.2.3,Win32,238.0952381,6776816f12ad2c97726dd2ab,68224bc8a476e0f1ff0bf7fa,682b7e5e68da843fe2e2d427,,,,,,,,,,,,1035.795,3,1035.795,,,,1038.5002,1039.0004,1037.9997,1038.5001,1036.7988,241,1037.9996,1039.0004,1039.5009,1039.5009,1041.0694,1292.1,1041.0696,4,1042.0673,3,15,105,27,1,1.2,0.7,Time
,,182072,001,,,2025-05-19_19h59.07.529,Serial_Dependence_U,2023.2.3,Win32,238.0952381,6776816f12ad2c97726dd2ab,68224bc8a476e0f1ff0bf7fa,682b7e5e68da843fe2e2d427,,,,,,,,,,,,1042.0675,3,1042.0676,,,,1044.3686,1044.8662,1043.8678,1044.3684,1043.0673,289,1043.8678,1044.8662,1045.3652,1045.3652,1046.0991,655.2,1046.0991,2,1047.0971,3,16,106,0,1,0.8,0.3,Time
,,182072,001,,,2025-05-19_19h59.07.529,Serial_Dependence_U,2023.2.3,Win32,238.0952381,6776816f12ad2c97726dd2ab,68224bc8a476e0f1ff0bf7fa,682b7e5e68da843fe2e2d427,,,,,,,,,,,,1047.0974,3,1047.0974,,,,1049.8021,1050.303,1049.2995,1049.8021,1048.0984,292,1049.2995,1050.3031,1050.8049,1050.805,1052.0005,1117.8,1052.0006,2,1053.0009,3,17,107,22,1,1.2,0.3,Time
,,182072,001,,,2025-05-19_19h59.07.529,Serial_Dependence_U,2023.2.3,Win32,238.0952381,6776816f12ad2c97726dd2ab,68224bc8a476e0f1ff0bf7fa,682b7e5e68da843fe2e2d427,,,,,,,,,,,,1053.0011,3,1053.0011,,,,1055.5094,1056.011,1055.008,1055.5094,1054.0066,78,1055.0079,1056.011,1056.5107,1056.5107,1057.75,1059.4,1057.7501,4,1058.7489,3,18,108,21,1,1,0.3,Time
,,182072,001,,,2025-05-19_19h59.07.529,Serial_Dependence_U,2023.2.3,Win32,238.0952381,6776816f12ad2c97726dd2ab,68224bc8a476e0f1ff0bf7fa,682b7e5e68da843fe2e2d427,,,,,,,,,,,,1058.7491,3,1058.7492,,,,1061.6534,1062.1522,1061.153,1061.6534,1059.7501,206,1061.153,1062.1522,1062.6524,1062.6524,1063.9955,1242.3,1063.9956,2,1064.9935,3,19,109,28,1,1.4,0.7,Time
,,182072,001,,,2025-05-19_19h59.07.529,Serial_Dependence_U,2023.2.3,Win32,238.0952381,6776816f12ad2c97726dd2ab,68224bc8a476e0f1ff0bf7fa,682b7e5e68da843fe2e2d427,,,,,,,,,,,,1064.9937,3,1064.9938,,,,1067.9037,1068.4014,1067.4006,1067.9036,1065.9975,130,1067.4006,1068.4014,1068.9004,1068.9004,1070.2351,1160.2,1070.2352,2,1071.2332,3,20,110,23,1,1.4,0.3,Time
,,182072,001,,,2025-05-19_19h59.07.529,Serial_Dependence_U,2023.2.3,Win32,238.0952381,6776816f12ad2c97726dd2ab,68224bc8a476e0f1ff0bf7fa,682b7e5e68da843fe2e2d427,,,,,,,,,,,,1071.2334,3,1071.2335,,,,1074.339,1074.8378,1073.8384,1074.3389,1072.2369,190,1073.8384,1074.8378,1075.3355,1075.3355,1076.3491,1006.5,1076.3492,1,1077.3461,3,21,111,24,1,1.6,0.3,Time
,,182072,001,,,2025-05-19_19h59.07.529,Serial_Dependence_U,2023.2.3,Win32,238.0952381,6776816f12ad2c97726dd2ab,68224bc8a476e0f1ff0bf7fa,682b7e5e68da843fe2e2d427,,,,,,,,,,,,1077.3463,3,1077.3465,,,,1079.6482,1080.1485,1079.1477,1079.6482,1078.347,71,1079.1477,1080.1485,1080.6463,1080.6463,1081.7629,872.8,1081.763,4,1082.7636,3,22,112,10,1,0.8,0.3,Time
,,182072,001,,,2025-05-19_19h59.07.529,Serial_Dependence_U,2023.2.3,Win32,238.0952381,6776816f12ad2c97726dd2ab,68224bc8a476e0f1ff0bf7fa,682b7e5e68da843fe2e2d427,,,,,,,,,,,,1082.7638,3,1082.7638,,,,1085.8668,1086.3643,1085.3663,1085.8668,1083.7647,31,1085.3662,1086.3643,1086.8649,1086.8649,1088.361,1277.7,1088.3611,2,1089.3601,3,23,113,9,1,1.6,0.7,Time
,,182072,001,,,2025-05-19_19h59.07.529,Serial_Dependence_U,2023.2.3,Win32,238.0952381,6776816f12ad2c97726dd2ab,68224bc8a476e0f1ff0bf7fa,682b7e5e68da843fe2e2d427,,,,,,,,,,,,1089.3603,3,1089.3604,,,,1091.664,1092.1616,1091.1611,1091.6639,1090.3588,147,1091.161,1092.1617,1092.6606,1092.6606,1093.708,794.2,1093.708,3,1094.7087,3,24,114,20,1,0.8,0.3,Time
,,182072,001,,,2025-05-19_19h59.07.529,Serial_Dependence_U,2023.2.3,Win32,238.0952381,6776816f12ad2c97726dd2ab,68224bc8a476e0f1ff0bf7fa,682b7e5e68da843fe2e2d427,,,,,,,,,,,,1094.7089,3,1094.709,,,,1097.413,1097.9129,1096.911,1097.413,1095.7099,310,1096.9109,1097.9129,1098.4138,1098.4138,1099.478,951.2,1099.4781,2,1100.4768,3,25,115,2,1,1.2,0.3,Time
,,182072,001,,,2025-05-19_19h59.07.529,Serial_Dependence_U,2023.2.3,Win32,238.0952381,6776816f12ad2c97726dd2ab,68224bc8a476e0f1ff0bf7fa,682b7e5e68da843fe2e2d427,,,,,,,,,,,,1100.477,3,1100.4771,,,,1102.9791,1103.4769,1102.4786,1102.9791,1101.4753,332,1102.4785,1103.4769,1103.9759,1103.976,1105.1247,896.6,1105.1248,2,1106.1226,3,26,116,6,1,1,0.7,Time
,,182072,001,,,2025-05-19_19h59.07.529,Serial_Dependence_U,2023.2.3,Win32,238.0952381,6776816f12ad2c97726dd2ab,68224bc8a476e0f1ff0bf7fa,682b7e5e68da843fe2e2d427,,,,,,,,,,,,1106.1228,3,1106.1229,,,,1109.2312,1109.7315,1108.7288,1109.2311,1107.1248,193,1108.7287,1109.7315,1110.2289,1110.2289,1111.7138,1334.2,1111.7139,2,1112.7133,3,27,117,19,1,1.6,0.7,Time
,,182072,001,,,2025-05-19_19h59.07.529,Serial_Dependence_U,2023.2.3,Win32,238.0952381,6776816f12ad2c97726dd2ab,68224bc8a476e0f1ff0bf7fa,682b7e5e68da843fe2e2d427,,,,,,,,,,,,1112.7136,3,1112.7137,,,,1115.6163,1116.1166,1115.1159,1115.6162,1113.7146,125,1115.1158,1116.1166,1116.6144,1116.6144,1118.152,1371.5,1118.1521,3,1119.1528,3,28,118,3,1,1.4,0.3,Time
,,182072,001,,,2025-05-19_19h59.07.529,Serial_Dependence_U,2023.2.3,Win32,238.0952381,6776816f12ad2c97726dd2ab,68224bc8a476e0f1ff0bf7fa,682b7e5e68da843fe2e2d427,,,,,,,,,,,,1119.1531,3,1119.1532,,,,1122.06,1122.5603,1121.557,1122.06,1120.154,206,1121.5569,1122.5603,1123.0583,1123.0583,1124.6208,1400.1,1124.6209,3,1125.6178,3,29,119,18,1,1.4,0.7,Time
,,182072,001,,,2025-05-19_19h59.07.529,Serial_Dependence_U,2023.2.3,Win32,238.0952381,6776816f12ad2c97726dd2ab,68224bc8a476e0f1ff0bf7fa,682b7e5e68da843fe2e2d427,,,,,,,,,,,,1125.6182,4,1138.0858,s,12.4614,,1140.5932,1141.091,1140.0891,1140.5931,1139.0848,123,1140.089,1141.091,1141.5912,1141.5913,1142.9113,1062.9,1142.9114,4,1143.9119,4,0,120,1,1,1,0.3,Time
,,182072,001,,,2025-05-19_19h59.07.529,Serial_Dependence_U,2023.2.3,Win32,238.0952381,6776816f12ad2c97726dd2ab,68224bc8a476e0f1ff0bf7fa,682b7e5e68da843fe2e2d427,,,,,,,,,,,,1143.9121,4,1143.9128,,,,1147.0193,1147.5212,1146.5172,1147.0192,1144.9155,174,1146.5172,1147.5212,1148.0185,1148.0185,1149.422,1196.9,1149.4222,2,1150.4206,4,1,121,29,1,1.6,0.7,Time
,,182072,001,,,2025-05-19_19h59.07.529,Serial_Dependence_U,2023.2.3,Win32,238.0952381,6776816f12ad2c97726dd2ab,68224bc8a476e0f1ff0bf7fa,682b7e5e68da843fe2e2d427,,,,,,,,,,,,1150.4208,4,1150.4208,,,,1153.3281,1153.8284,1152.8273,1153.328,1151.425,83,1152.8272,1153.8284,1154.3259,1154.3259,1155.6883,1140,1155.6884,2,1156.6892,4,2,122,8,1,1.4,0.7,Time
,,182072,001,,,2025-05-19_19h59.07.529,Serial_Dependence_U,2023.2.3,Win32,238.0952381,6776816f12ad2c97726dd2ab,68224bc8a476e0f1ff0bf7fa,682b7e5e68da843fe2e2d427,,,,,,,,,,,,1156.6894,4,1156.6894,,,,1159.4017,1159.9055,1158.8958,1159.4017,1157.6945,223,1158.8958,1159.9055,1160.4052,1160.4053,1161.8128,1203,1161.8128,3,1162.812,4,3,123,12,1,1.2,0.3,Time
,,182072,001,,,2025-05-19_19h59.07.529,Serial_Dependence_U,2023.2.3,Win32,238.0952381,6776816f12ad2c97726dd2ab,68224bc8a476e0f1ff0bf7fa,682b7e5e68da843fe2e2d427,,,,,,,,,,,,1162.8122,4,1162.8122,,,,1165.715,1166.215,1165.2144,1165.7149,1163.8131,58,1165.2143,1166.215,1166.7157,1166.7158,1168.3005,1317.4,1168.3006,2,1169.3013,4,4,124,18,1,1.4,0.7,Time
,,182072,001,,,2025-05-19_19h59.07.529,Serial_Dependence_U,2023.2.3,Win32,238.0952381,6776816f12ad2c97726dd2ab,68224bc8a476e0f1ff0bf7fa,682b7e5e68da843fe2e2d427,,,,,,,,,,,,1169.3015,4,1169.3016,,,,1171.6122,1172.1127,1171.1097,1171.6121,1170.3029,61,1171.1095,1172.1127,1172.6128,1172.6129,1173.5389,670.9,1173.539,2,1174.5423,4,5,125,5,1,0.8,0.7,Time
,,182072,001,,,2025-05-19_19h59.07.529,Serial_Dependence_U,2023.2.3,Win32,238.0952381,6776816f12ad2c97726dd2ab,68224bc8a476e0f1ff0bf7fa,682b7e5e68da843fe2e2d427,,,,,,,,,,,,1174.5426,4,1174.5427,,,,1177.4471,1177.943,1176.9467,1177.447,1175.5427,355,1176.9466,1177.9431,1178.4436,1178.4436,1179.9659,1415.6,1179.966,3,1180.9638,4,6,126,13,1,1.4,0.3,Time
,,182072,001,,,2025-05-19_19h59.07.529,Serial_Dependence_U,2023.2.3,Win32,238.0952381,6776816f12ad2c97726dd2ab,68224bc8a476e0f1ff0bf7fa,682b7e5e68da843fe2e2d427,,,,,,,,,,,,1180.964,4,1180.9641,,,,1183.4696,1183.9674,1182.9664,1183.4695,1181.966,187,1182.9664,1183.9674,1184.4676,1184.4677,1185.7758,1065.8,1185.7759,4,1186.7739,4,7,127,6,1,1,0.7,Time
,,182072,001,,,2025-05-19_19h59.07.529,Serial_Dependence_U,2023.2.3,Win32,238.0952381,6776816f12ad2c97726dd2ab,68224bc8a476e0f1ff0bf7fa,682b7e5e68da843fe2e2d427,,,,,,,,,,,,1186.774,4,1186.7741,,,,1189.0793,1189.5773,1188.5772,1189.0792,1187.7753,139,1188.5771,1189.5773,1190.0758,1190.0759,1191.1645,809.3,1191.1646,3,1192.1624,4,8,128,0,1,0.8,0.3,Time
,,182072,001,,,2025-05-19_19h59.07.529,Serial_Dependence_U,2023.2.3,Win32,238.0952381,6776816f12ad2c97726dd2ab,68224bc8a476e0f1ff0bf7fa,682b7e5e68da843fe2e2d427,,,,,,,,,,,,1192.1627,4,1192.1628,,,,1195.0768,1195.5746,1194.5724,1195.0767,1193.1663,139,1194.5723,1195.5747,1196.0738,1196.0738,1197.5616,1311.3,1197.5617,2,1198.5609,4,9,129,3,1,1.4,0.3,Time
,,182072,001,,,2025-05-19_19h59.07.529,Serial_Dependence_U,2023.2.3,Win32,238.0952381,6776816f12ad2c97726dd2ab,68224bc8a476e0f1ff0bf7fa,682b7e5e68da843fe2e2d427,,,,,,,,,,,,1198.5611,4,1198.5612,,,,1201.6661,1202.1665,1201.1657,1201.6661,1199.5642,106,1201.1656,1202.1665,1202.667,1202.667,1204.3606,1415.4,1204.3607,2,1205.3614,4,10,130,19,1,1.6,0.7,Time
,,182072,001,,,2025-05-19_19h59.07.529,Serial_Dependence_U,2023.2.3,Win32,238.0952381,6776816f12ad2c97726dd2ab,68224bc8a476e0f1ff0bf7fa,682b7e5e68da843fe2e2d427,,,,,,,,,,,,1205.3616,4,1205.3617,,,,1208.064,1208.5619,1207.5635,1208.0639,1206.3624,172,1207.5635,1208.5619,1209.0606,1209.0607,1210.7457,1484.4,1210.7457,4,1211.7442,4,11,131,17,1,1.2,0.7,Time
,,182072,001,,,2025-05-19_19h59.07.529,Serial_Dependence_U,2023.2.3,Win32,238.0952381,6776816f12ad2c97726dd2ab,68224bc8a476e0f1ff0bf7fa,682b7e5e68da843fe2e2d427,,,,,,,,,,,,1211.7444,4,1211.7445,,,,1214.6468,1215.1459,1214.1451,1214.6468,1212.7435,183,1214.1451,1215.1459,1215.6464,1215.6464,1217.1919,1368,1217.192,3,1218.1903,4,12,132,28,1,1.4,0.7,Time
,,182072,001,,,2025-05-19_19h59.07.529,Serial_Dependence_U,2023.2.3,Win32,238.0952381,6776816f12ad2c97726dd2ab,68224bc8a476e0f1ff0bf7fa,682b7e5e68da843fe2e2d427,,,,,,,,,,,,1218.1906,4,1218.1907,,,,1220.493,1220.9933,1219.9924,1220.4929,1219.1914,167,1219.9924,1220.9933,1221.4937,1221.4937,1222.6699,895.1,1222.67,4,1223.6706,4,13,133,20,1,0.8,0.3,Time
,,182072,001,,,2025-05-19_19h59.07.529,Serial_Dependence_U,2023.2.3,Win32,238.0952381,6776816f12ad2c97726dd2ab,68224bc8a476e0f1ff0bf7fa,682b7e5e68da843fe2e2d427,,,,,,,,,,,,1223.6708,4,1223.6708,,,,1225.9772,1226.4747,1225.4766,1225.9771,1224.6734,55,1225.4765,1226.4747,1226.9737,1226.9737,1228.1708,921.3,1228.1708,4,1229.1691,4,14,134,25,1,0.8,0.7,Time
,,182072,001,,,2025-05-19_19h59.07.529,Serial_Dependence_U,2023.2.3,Win32,238.0952381,6776816f12ad2c97726dd2ab,68224bc8a476e0f1ff0bf7fa,682b7e5e68da843fe2e2d427,,,,,,,,,,,,1229.1693,4,1229.1694,,,,1231.4699,1231.9679,1230.9695,1231.4699,1230.1687,230,1230.9694,1231.9679,1232.4667,1232.4667,1233.4759,805.6,1233.476,3,1234.4768,4,15,135,15,1,0.8,0.7,Time
,,182072,001,,,2025-05-19_19h59.07.529,Serial_Dependence_U,2023.2.3,Win32,238.0952381,6776816f12ad2c97726dd2ab,68224bc8a476e0f1ff0bf7fa,682b7e5e68da843fe2e2d427,,,,,,,,,,,,1234.477,4,1234.4771,,,,1237.188,1237.6883,1236.6844,1237.1879,1235.4798,174,1236.6843,1237.6884,1238.186,1238.1861,1239.5196,1155.5,1239.5196,3,1240.5172,4,16,136,7,1,1.2,0.7,Time
,,182072,001,,,2025-05-19_19h59.07.529,Serial_Dependence_U,2023.2.3,Win32,238.0952381,6776816f12ad2c97726dd2ab,68224bc8a476e0f1ff0bf7fa,682b7e5e68da843fe2e2d427,,,,,,,,,,,,1240.5174,4,1240.5175,,,,1243.2273,1243.7261,1242.7244,1243.2271,1241.5213,6,1242.7243,1243.7261,1244.2256,1244.2256,1245.745,1278.5,1245.745,4,1246.7431,4,17,137,22,1,1.2,0.3,Time
,,182072,001,,,2025-05-19_19h59.07.529,Serial_Dependence_U,2023.2.3,Win32,238.0952381,6776816f12ad2c97726dd2ab,68224bc8a476e0f1ff0bf7fa,682b7e5e68da843fe2e2d427,,,,,,,,,,,,1246.7434,4,1246.7434,,,,1249.648,1250.1474,1249.1456,1249.6479,1247.7436,100,1249.1455,1250.1475,1250.648,1250.648,1252.1025,1294.6,1252.1026,2,1253.0993,4,18,138,23,1,1.4,0.3,Time
,,182072,001,,,2025-05-19_19h59.07.529,Serial_Dependence_U,2023.2.3,Win32,238.0952381,6776816f12ad2c97726dd2ab,68224bc8a476e0f1ff0bf7fa,682b7e5e68da843fe2e2d427,,,,,,,,,,,,1253.0995,4,1253.0996,,,,1255.8051,1256.3023,1255.3016,1255.8051,1254.1004,11,1255.3015,1256.3023,1256.8028,1256.8028,1258.0123,1147.2,1258.0125,3,1259.0105,4,19,139,2,1,1.2,0.3,Time
,,182072,001,,,2025-05-19_19h59.07.529,Serial_Dependence_U,2023.2.3,Win32,238.0952381,6776816f12ad2c97726dd2ab,68224bc8a476e0f1ff0bf7fa,682b7e5e68da843fe2e2d427,,,,,,,,,,,,1259.0106,4,1259.0107,,,,1261.5177,1262.0176,1261.0154,1261.5177,1260.0119,168,1261.0153,1262.0176,1262.5167,1262.5167,1263.801,1154.2,1263.8011,4,1264.8019,4,20,140,26,1,1,0.7,Time
,,182072,001,,,2025-05-19_19h59.07.529,Serial_Dependence_U,2023.2.3,Win32,238.0952381,6776816f12ad2c97726dd2ab,68224bc8a476e0f1ff0bf7fa,682b7e5e68da843fe2e2d427,,,,,,,,,,,,1264.8022,4,1264.8023,,,,1267.5048,1268.0053,1267.0043,1267.5047,1265.8008,8,1267.0042,1268.0053,1268.5063,1268.5063,1269.8893,1188.8,1269.8895,3,1270.8902,4,21,141,27,1,1.2,0.7,Time
,,182072,001,,,2025-05-19_19h59.07.529,Serial_Dependence_U,2023.2.3,Win32,238.0952381,6776816f12ad2c97726dd2ab,68224bc8a476e0f1ff0bf7fa,682b7e5e68da843fe2e2d427,,,,,,,,,,,,1270.8903,4,1270.8904,,,,1273.3913,1273.8902,1272.8891,1273.3912,1271.8886,160,1272.889,1273.8903,1274.3907,1274.3907,1275.5416,950.3,1275.5416,3,1276.5425,4,22,142,16,1,1,0.7,Time
,,182072,001,,,2025-05-19_19h59.07.529,Serial_Dependence_U,2023.2.3,Win32,238.0952381,6776816f12ad2c97726dd2ab,68224bc8a476e0f1ff0bf7fa,682b7e5e68da843fe2e2d427,,,,,,,,,,,,1276.5427,4,1276.5427,,,,1279.6478,1280.1462,1279.1454,1279.6477,1277.5436,211,1279.1453,1280.1463,1280.6439,1280.644,1282.1941,1363.9,1282.1942,2,1283.197,4,23,143,9,1,1.6,0.7,Time
,,182072,001,,,2025-05-19_19h59.07.529,Serial_Dependence_U,2023.2.3,Win32,238.0952381,6776816f12ad2c97726dd2ab,68224bc8a476e0f1ff0bf7fa,682b7e5e68da843fe2e2d427,,,,,,,,,,,,1283.1972,4,1283.1972,,,,1286.3069,1286.8065,1285.8018,1286.3068,1284.198,141,1285.8017,1286.8065,1287.3055,1287.3055,1289.0172,1355.3,1289.0172,2,1290.0176,4,24,144,4,1,1.6,0.3,Time
,,182072,001,,,2025-05-19_19h59.07.529,Serial_Dependence_U,2023.2.3,Win32,238.0952381,6776816f12ad2c97726dd2ab,68224bc8a476e0f1ff0bf7fa,682b7e5e68da843fe2e2d427,,,,,,,,,,,,1290.0177,4,1290.0178,,,,1292.3289,1292.8292,1291.8199,1292.3288,1291.0192,104,1291.8199,1292.8293,1293.3273,1293.3273,1294.3097,827.3,1294.3097,3,1295.3106,4,25,145,10,1,0.8,0.3,Time
,,182072,001,,,2025-05-19_19h59.07.529,Serial_Dependence_U,2023.2.3,Win32,238.0952381,6776816f12ad2c97726dd2ab,68224bc8a476e0f1ff0bf7fa,682b7e5e68da843fe2e2d427,,,,,,,,,,,,1295.3109,4,1295.3109,,,,1298.4139,1298.9115,1297.9107,1298.4138,1296.3101,52,1297.9107,1298.9116,1299.4104,1299.4104,1300.7767,1301.8,1300.7768,2,1301.7743,4,26,146,14,1,1.6,0.3,Time
,,182072,001,,,2025-05-19_19h59.07.529,Serial_Dependence_U,2023.2.3,Win32,238.0952381,6776816f12ad2c97726dd2ab,68224bc8a476e0f1ff0bf7fa,682b7e5e68da843fe2e2d427,,,,,,,,,,,,1301.7746,4,1301.7748,,,,1304.2795,1304.7784,1303.7774,1304.2794,1302.7767,134,1303.7772,1304.7785,1305.2786,1305.2786,1306.6341,1243.1,1306.6343,4,1307.635,4,27,147,11,1,1,0.3,Time
,,182072,001,,,2025-05-19_19h59.07.529,Serial_Dependence_U,2023.2.3,Win32,238.0952381,6776816f12ad2c97726dd2ab,68224bc8a476e0f1ff0bf7fa,682b7e5e68da843fe2e2d427,,,,,,,,,,,,1307.6352,4,1307.6353,,,,1310.7466,1311.244,1310.245,1310.7466,1308.6391,315,1310.2449,1311.244,1311.7431,1311.7432,1313.1363,1262.2,1313.1364,2,1314.1371,4,28,148,24,1,1.6,0.3,Time
,,182072,001,,,2025-05-19_19h59.07.529,Serial_Dependence_U,2023.2.3,Win32,238.0952381,6776816f12ad2c97726dd2ab,68224bc8a476e0f1ff0bf7fa,682b7e5e68da843fe2e2d427,,,,,,,,,,,,1314.1374,4,1314.1374,,,,1316.6397,1317.1407,1316.1393,1316.6397,1315.1383,166,1316.1393,1317.1407,1317.6408,1317.6408,1318.9043,1233.2,1318.9044,4,1319.905,4,29,149,21,1,1,0.3,Time
,,182072,001,,,2025-05-19_19h59.07.529,Serial_Dependence_U,2023.2.3,Win32,238.0952381,6776816f12ad2c97726dd2ab,68224bc8a476e0f1ff0bf7fa,682b7e5e68da843fe2e2d427,,,,,,,,,,,,1319.9051,5,1321.219,s,1.3076,,1323.7215,1324.2193,1323.2211,1323.7215,1322.2202,242,1323.221,1324.2193,1324.7182,1324.7183,1325.6529,891.3,1325.6531,2,1326.6534,5,0,150,6,1,1,0.7,Time
,,182072,001,,,2025-05-19_19h59.07.529,Serial_Dependence_U,2023.2.3,Win32,238.0952381,6776816f12ad2c97726dd2ab,68224bc8a476e0f1ff0bf7fa,682b7e5e68da843fe2e2d427,,,,,,,,,,,,1326.6537,5,1326.6543,,,,1329.7565,1330.2557,1329.2563,1329.7565,1327.6547,212,1329.2562,1330.2557,1330.7531,1330.7532,1332.0586,1238.2,1332.0588,2,1333.0568,5,1,151,9,1,1.6,0.7,Time
,,182072,001,,,2025-05-19_19h59.07.529,Serial_Dependence_U,2023.2.3,Win32,238.0952381,6776816f12ad2c97726dd2ab,68224bc8a476e0f1ff0bf7fa,682b7e5e68da843fe2e2d427,,,,,,,,,,,,1333.057,5,1333.057,,,,1336.1631,1336.6602,1335.6625,1336.163,1334.0609,281,1335.6625,1336.6602,1337.1609,1337.1609,1338.7908,1402.9,1338.7909,2,1339.7884,5,2,152,19,1,1.6,0.7,Time
,,182072,001,,,2025-05-19_19h59.07.529,Serial_Dependence_U,2023.2.3,Win32,238.0952381,6776816f12ad2c97726dd2ab,68224bc8a476e0f1ff0bf7fa,682b7e5e68da843fe2e2d427,,,,,,,,,,,,1339.7887,5,1339.7888,,,,1342.4905,1342.9902,1341.9895,1342.4904,1340.788,116,1341.9895,1342.9902,1343.4887,1343.4887,1344.9795,1312.8,1344.9797,4,1345.9777,5,3,153,2,1,1.2,0.3,Time
,,182072,001,,,2025-05-19_19h59.07.529,Serial_Dependence_U,2023.2.3,Win32,238.0952381,6776816f12ad2c97726dd2ab,68224bc8a476e0f1ff0bf7fa,682b7e5e68da843fe2e2d427,,,,,,,,,,,,1345.978,5,1345.978,,,,1348.4845,1348.9833,1347.9829,1348.4844,1346.9819,192,1347.9828,1348.9833,1349.484,1349.484,1350.5892,996.4,1350.5893,3,1351.5886,5,4,154,11,1,1,0.3,Time
,,182072,001,,,2025-05-19_19h59.07.529,Serial_Dependence_U,2023.2.3,Win32,238.0952381,6776816f12ad2c97726dd2ab,68224bc8a476e0f1ff0bf7fa,682b7e5e68da843fe2e2d427,,,,,,,,,,,,1351.5888,5,1351.589,,,,1354.0942,1354.5946,1353.5921,1354.0941,1352.589,218,1353.5921,1354.5946,1355.0947,1355.0947,1356.2071,992.5,1356.2072,3,1357.2079,5,5,155,16,1,1,0.7,Time
,,182072,001,,,2025-05-19_19h59.07.529,Serial_Dependence_U,2023.2.3,Win32,238.0952381,6776816f12ad2c97726dd2ab,68224bc8a476e0f1ff0bf7fa,682b7e5e68da843fe2e2d427,,,,,,,,,,,,1357.2081,5,1357.2082,,,,1360.3128,1360.8113,1359.8106,1360.3127,1358.2091,79,1359.8105,1360.8114,1361.3121,1361.3121,1362.7011,1268.7,1362.7012,2,1363.699,5,6,156,29,1,1.6,0.7,Time
,,182072,001,,,2025-05-19_19h59.07.529,Serial_Dependence_U,2023.2.3,Win32,238.0952381,6776816f12ad2c97726dd2ab,68224bc8a476e0f1ff0bf7fa,682b7e5e68da843fe2e2d427,,,,,,,,,,,,1363.6993,5,1363.6993,,,,1366.6068,1367.105,1366.1042,1366.6067,1364.7031,299,1366.1042,1367.1051,1367.6054,1367.6055,1368.8412,1218.7,1368.8414,2,1369.8411,5,7,157,3,1,1.4,0.3,Time
,,182072,001,,,2025-05-19_19h59.07.529,Serial_Dependence_U,2023.2.3,Win32,238.0952381,6776816f12ad2c97726dd2ab,68224bc8a476e0f1ff0bf7fa,682b7e5e68da843fe2e2d427,,,,,,,,,,,,1369.8414,5,1369.8414,,,,1372.7439,1373.2442,1372.2436,1372.7439,1370.8421,262,1372.2434,1373.2442,1373.7448,1373.7448,1375.238,1351.3,1375.2382,3,1376.2349,5,8,158,8,1,1.4,0.7,Time
,,182072,001,,,2025-05-19_19h59.07.529,Serial_Dependence_U,2023.2.3,Win32,238.0952381,6776816f12ad2c97726dd2ab,68224bc8a476e0f1ff0bf7fa,682b7e5e68da843fe2e2d427,,,,,,,,,,,,1376.2351,5,1376.2352,,,,1378.537,1379.0345,1378.0366,1378.537,1377.2361,83,1378.0365,1379.0345,1379.5339,1379.5339,1380.4116,750.4,1380.4117,2,1381.4108,5,9,159,10,1,0.8,0.3,Time
,,182072,001,,,2025-05-19_19h59.07.529,Serial_Dependence_U,2023.2.3,Win32,238.0952381,6776816f12ad2c97726dd2ab,68224bc8a476e0f1ff0bf7fa,682b7e5e68da843fe2e2d427,,,,,,,,,,,,1381.411,5,1381.4111,,,,1384.3219,1384.8222,1383.8186,1384.3217,1382.4158,239,1383.8186,1384.8222,1385.3214,1385.3215,1387.3048,1121.1,1387.3049,2,1388.3046,5,10,160,28,1,1.4,0.7,Time
,,182072,001,,,2025-05-19_19h59.07.529,Serial_Dependence_U,2023.2.3,Win32,238.0952381,6776816f12ad2c97726dd2ab,68224bc8a476e0f1ff0bf7fa,682b7e5e68da843fe2e2d427,,,,,,,,,,,,1388.3049,5,1388.305,,,,1390.6129,1391.1131,1390.111,1390.6129,1389.31,294,1390.111,1391.1131,1391.612,1391.612,1392.6339,929.6,1392.634,4,1393.6323,5,11,161,15,1,0.8,0.7,Time
,,182072,001,,,2025-05-19_19h59.07.529,Serial_Dependence_U,2023.2.3,Win32,238.0952381,6776816f12ad2c97726dd2ab,68224bc8a476e0f1ff0bf7fa,682b7e5e68da843fe2e2d427,,,,,,,,,,,,1393.6325,5,1393.6326,,,,1396.3416,1396.8393,1395.8371,1396.3415,1394.6336,291,1395.837,1396.8393,1397.3399,1397.3399,1398.7406,1062.1,1398.7406,2,1399.7386,5,12,162,12,1,1.2,0.3,Time
,,182072,001,,,2025-05-19_19h59.07.529,Serial_Dependence_U,2023.2.3,Win32,238.0952381,6776816f12ad2c97726dd2ab,68224bc8a476e0f1ff0bf7fa,682b7e5e68da843fe2e2d427,,,,,,,,,,,,1399.7388,5,1399.7389,,,,1402.0433,1402.5421,1401.5403,1402.0433,1400.7394,173,1401.5402,1402.5421,1403.0397,1403.0398,1403.8411,756.2,1403.8412,2,1404.8417,5,13,163,25,1,0.8,0.7,Time
,,182072,001,,,2025-05-19_19h59.07.529,Serial_Dependence_U,2023.2.3,Win32,238.0952381,6776816f12ad2c97726dd2ab,68224bc8a476e0f1ff0bf7fa,682b7e5e68da843fe2e2d427,,,,,,,,,,,,1404.8419,5,1404.842,,,,1407.9511,1408.4507,1407.4501,1407.9511,1405.8471,311,1407.4501,1408.4507,1408.9496,1408.9497,1410.4097,1384.2,1410.4098,2,1411.4078,5,14,164,24,1,1.6,0.3,Time
,,182072,001,,,2025-05-19_19h59.07.529,Serial_Dependence_U,2023.2.3,Win32,238.0952381,6776816f12ad2c97726dd2ab,68224bc8a476e0f1ff0bf7fa,682b7e5e68da843fe2e2d427,,,,,,,,,,,,1411.4081,5,1411.4081,,,,1414.3091,1414.8094,1413.8082,1414.309,1412.4073,225,1413.8081,1414.8094,1415.3099,1415.3099,1416.8114,1471.9,1416.8116,4,1417.8123,5,15,165,23,1,1.4,0.3,Time
,,182072,001,,,2025-05-19_19h59.07.529,Serial_Dependence_U,2023.2.3,Win32,238.0952381,6776816f12ad2c97726dd2ab,68224bc8a476e0f1ff0bf7fa,682b7e5e68da843fe2e2d427,,,,,,,,,,,,1417.8125,5,1417.8126,,,,1420.5194,1421.0171,1420.0167,1420.5193,1418.8135,3,1420.0166,1421.0171,1421.5179,1421.5179,1422.8173,1177.3,1422.8174,3,1423.8156,5,16,166,22,1,1.2,0.3,Time
,,182072,001,,,2025-05-19_19h59.07.529,Serial_Dependence_U,2023.2.3,Win32,238.0952381,6776816f12ad2c97726dd2ab,68224bc8a476e0f1ff0bf7fa,682b7e5e68da843fe2e2d427,,,,,,,,,,,,1423.8158,5,1423.8159,,,,1426.3207,1426.8185,1425.8204,1426.3206,1424.8168,328,1425.8203,1426.8185,1427.3176,1427.3176,1428.377,939.5,1428.3771,2,1429.3779,5,17,167,21,1,1,0.3,Time
,,182072,001,,,2025-05-19_19h59.07.529,Serial_Dependence_U,2023.2.3,Win32,238.0952381,6776816f12ad2c97726dd2ab,68224bc8a476e0f1ff0bf7fa,682b7e5e68da843fe2e2d427,,,,,,,,,,,,1429.3782,5,1429.3782,,,,1431.8844,1432.3847,1431.3815,1431.8844,1430.381,309,1431.3815,1432.3847,1432.8826,1432.8826,1433.9738,931.4,1433.9739,2,1434.9749,5,18,168,26,1,1,0.7,Time
,,182072,001,,,2025-05-19_19h59.07.529,Serial_Dependence_U,2023.2.3,Win32,238.0952381,6776816f12ad2c97726dd2ab,68224bc8a476e0f1ff0bf7fa,682b7e5e68da843fe2e2d427,,,,,,,,,,,,1434.9751,5,1434.9752,,,,1437.2814,1437.7816,1436.7808,1437.2813,1435.9778,82,1436.7807,1437.7816,1438.2794,1438.2794,1439.1731,765.4,1439.1731,3,1440.1746,5,19,169,0,1,0.8,0.3,Time
,,182072,001,,,2025-05-19_19h59.07.529,Serial_Dependence_U,2023.2.3,Win32,238.0952381,6776816f12ad2c97726dd2ab,68224bc8a476e0f1ff0bf7fa,682b7e5e68da843fe2e2d427,,,,,,,,,,,,1440.175,5,1440.1751,,,,1442.4782,1442.976,1441.9775,1442.4782,1441.1771,261,1441.9774,1442.976,1443.4748,1443.4748,1444.4184,770.2,1444.4185,3,1445.4155,5,20,170,5,1,0.8,0.7,Time
,,182072,001,,,2025-05-19_19h59.07.529,Serial_Dependence_U,2023.2.3,Win32,238.0952381,6776816f12ad2c97726dd2ab,68224bc8a476e0f1ff0bf7fa,682b7e5e68da843fe2e2d427,,,,,,,,,,,,1445.4158,5,1445.4158,,,,1448.1129,1448.6102,1447.6123,1448.1128,1446.4109,87,1447.6123,1448.6102,1449.1109,1449.1109,1450.4651,1234.2,1450.4652,3,1451.4634,5,21,171,17,1,1.2,0.7,Time
,,182072,001,,,2025-05-19_19h59.07.529,Serial_Dependence_U,2023.2.3,Win32,238.0952381,6776816f12ad2c97726dd2ab,68224bc8a476e0f1ff0bf7fa,682b7e5e68da843fe2e2d427,,,,,,,,,,,,1451.4636,5,1451.4637,,,,1454.1687,1454.6662,1453.6655,1454.1687,1452.4628,100,1453.6655,1454.6662,1455.1652,1455.1653,1456.5122,1197.8,1456.5124,3,1457.5103,5,22,172,7,1,1.2,0.7,Time
,,182072,001,,,2025-05-19_19h59.07.529,Serial_Dependence_U,2023.2.3,Win32,238.0952381,6776816f12ad2c97726dd2ab,68224bc8a476e0f1ff0bf7fa,682b7e5e68da843fe2e2d427,,,,,,,,,,,,1457.5105,5,1457.5107,,,,1460.4161,1460.9165,1459.9157,1460.4161,1458.5117,352,1459.9156,1460.9165,1461.4169,1461.4169,1463.0648,1430.7,1463.0648,3,1464.063,5,23,173,18,1,1.4,0.7,Time
,,182072,001,,,2025-05-19_19h59.07.529,Serial_Dependence_U,2023.2.3,Win32,238.0952381,6776816f12ad2c97726dd2ab,68224bc8a476e0f1ff0bf7fa,682b7e5e68da843fe2e2d427,,,,,,,,,,,,1464.0633,5,1464.0633,,,,1466.572,1467.0717,1466.0678,1466.572,1465.0667,322,1466.0676,1467.0717,1467.569,1467.569,1468.7224,1039,1468.7225,3,1469.7207,5,24,174,1,1,1,0.3,Time
,,182072,001,,,2025-05-19_19h59.07.529,Serial_Dependence_U,2023.2.3,Win32,238.0952381,6776816f12ad2c97726dd2ab,68224bc8a476e0f1ff0bf7fa,682b7e5e68da843fe2e2d427,,,,,,,,,,,,1469.721,5,1469.721,,,,1472.4254,1472.926,1471.9234,1472.4253,1470.7219,18,1471.9233,1472.926,1473.426,1473.426,1474.8341,1201.7,1474.8342,3,1475.8332,5,25,175,27,1,1.2,0.7,Time
,,182072,001,,,2025-05-19_19h59.07.529,Serial_Dependence_U,2023.2.3,Win32,238.0952381,6776816f12ad2c97726dd2ab,68224bc8a476e0f1ff0bf7fa,682b7e5e68da843fe2e2d427,,,,,,,,,,,,1475.8334,5,1475.8335,,,,1478.9382,1479.4387,1478.4351,1478.9382,1476.8323,160,1478.435,1479.4387,1479.939,1479.939,1481.6326,1622.4,1481.6328,3,1482.6307,5,26,176,4,1,1.6,0.3,Time
,,182072,001,,,2025-05-19_19h59.07.529,Serial_Dependence_U,2023.2.3,Win32,238.0952381,6776816f12ad2c97726dd2ab,68224bc8a476e0f1ff0bf7fa,682b7e5e68da843fe2e2d427,,,,,,,,,,,,1482.6309,5,1482.631,,,,1485.7408,1486.2387,1485.2361,1485.7408,1483.6346,63,1485.2359,1486.2388,1486.7386,1486.7386,1488.3848,1548.7,1488.3849,3,1489.3856,5,27,177,14,1,1.6,0.3,Time
,,182072,001,,,2025-05-19_19h59.07.529,Serial_Dependence_U,2023.2.3,Win32,238.0952381,6776816f12ad2c97726dd2ab,68224bc8a476e0f1ff0bf7fa,682b7e5e68da843fe2e2d427,,,,,,,,,,,,1489.3859,5,1489.386,,,,1491.6911,1492.1883,1491.1875,1491.6911,1490.3868,58,1491.1874,1492.1883,1492.6864,1492.6865,1494.1028,1142.9,1494.103,5,1495.1036,5,28,178,20,1,0.8,0.3,Time
,,182072,001,,,2025-05-19_19h59.07.529,Serial_Dependence_U,2023.2.3,Win32,238.0952381,6776816f12ad2c97726dd2ab,68224bc8a476e0f1ff0bf7fa,682b7e5e68da843fe2e2d427,,,,,,,,,,,,1495.1038,5,1495.104,,,,1498.0109,1498.511,1497.5105,1498.0108,1496.1059,103,1497.5105,1498.511,1499.0116,1499.0116,1500.6424,1331.4,1500.6425,3,1501.6436,5,29,179,13,1,1.4,0.3,Time
,,182072,001,,,2025-05-19_19h59.07.529,Serial_Dependence_U,2023.2.3,Win32,238.0952381,6776816f12ad2c97726dd2ab,68224bc8a476e0f1ff0bf7fa,682b7e5e68da843fe2e2d427,,,,,,,,,,,,1501.6438,6,1503.5702,s,1.9198,,1505.8741,1506.3728,1505.3723,1505.8741,1504.5714,160,1505.3721,1506.3728,1506.8735,1506.8735,1508.3623,1113.5,1508.3624,5,1509.3604,6,0,180,0,1,0.8,0.3,Time
,,182072,001,,,2025-05-19_19h59.07.529,Serial_Dependence_U,2023.2.3,Win32,238.0952381,6776816f12ad2c97726dd2ab,68224bc8a476e0f1ff0bf7fa,682b7e5e68da843fe2e2d427,,,,,,,,,,,,1509.3606,6,1509.3612,,,,1512.0702,1512.5677,1511.5658,1512.0701,1510.3622,58,1511.5657,1512.5677,1513.0668,1513.0668,1514.5851,1218.1,1514.5853,3,1515.5832,6,1,181,12,1,1.2,0.3,Time
,,182072,001,,,2025-05-19_19h59.07.529,Serial_Dependence_U,2023.2.3,Win32,238.0952381,6776816f12ad2c97726dd2ab,68224bc8a476e0f1ff0bf7fa,682b7e5e68da843fe2e2d427,,,,,,,,,,,,1515.5834,6,1515.5835,,,,1518.6891,1519.1894,1518.186,1518.689,1516.5847,171,1518.1859,1519.1894,1519.6904,1519.6905,1521.2372,1262.3,1521.2373,2,1522.2359,6,2,182,24,1,1.6,0.3,Time
,,182072,001,,,2025-05-19_19h59.07.529,Serial_Dependence_U,2023.2.3,Win32,238.0952381,6776816f12ad2c97726dd2ab,68224bc8a476e0f1ff0bf7fa,682b7e5e68da843fe2e2d427,,,,,,,,,,,,1522.236,6,1522.236,,,,1524.7452,1525.2452,1524.2412,1524.7452,1523.2394,250,1524.2411,1525.2453,1525.7433,1525.7433,1526.8927,1010.6,1526.8928,3,1527.8937,6,3,183,26,1,1,0.7,Time
,,182072,001,,,2025-05-19_19h59.07.529,Serial_Dependence_U,2023.2.3,Win32,238.0952381,6776816f12ad2c97726dd2ab,68224bc8a476e0f1ff0bf7fa,682b7e5e68da843fe2e2d427,,,,,,,,,,,,1527.8939,6,1527.894,,,,1530.3965,1530.8943,1529.8959,1530.3964,1528.895,113,1529.8959,1530.8943,1531.3944,1531.3944,1532.5314,1050.8,1532.5316,4,1533.5322,6,4,184,1,1,1,0.3,Time
,,182072,001,,,2025-05-19_19h59.07.529,Serial_Dependence_U,2023.2.3,Win32,238.0952381,6776816f12ad2c97726dd2ab,68224bc8a476e0f1ff0bf7fa,682b7e5e68da843fe2e2d427,,,,,,,,,,,,1533.5324,6,1533.5325,,,,1536.0391,1536.5399,1535.5382,1536.0391,1534.5338,258,1535.5381,1536.5399,1537.0388,1537.0388,1538.2036,1010.2,1538.2039,3,1539.2045,6,5,185,21,1,1,0.3,Time
,,182072,001,,,2025-05-19_19h59.07.529,Serial_Dependence_U,2023.2.3,Win32,238.0952381,6776816f12ad2c97726dd2ab,68224bc8a476e0f1ff0bf7fa,682b7e5e68da843fe2e2d427,,,,,,,,,,,,1539.2048,6,1539.2049,,,,1542.1118,1542.6091,1541.6086,1542.1118,1540.2065,107,1541.6085,1542.6091,1543.1072,1543.1072,1544.3033,1138.1,1544.3033,2,1545.3023,6,6,186,3,1,1.4,0.3,Time
,,182072,001,,,2025-05-19_19h59.07.529,Serial_Dependence_U,2023.2.3,Win32,238.0952381,6776816f12ad2c97726dd2ab,68224bc8a476e0f1ff0bf7fa,682b7e5e68da843fe2e2d427,,,,,,,,,,,,1545.3026,6,1545.3027,,,,1547.6044,1548.1023,1547.104,1547.6044,1546.3032,275,1547.1039,1548.1023,1548.6011,1548.6011,1549.7815,899.7,1549.7816,4,1550.7824,6,7,187,10,1,0.8,0.3,Time
,,182072,001,,,2025-05-19_19h59.07.529,Serial_Dependence_U,2023.2.3,Win32,238.0952381,6776816f12ad2c97726dd2ab,68224bc8a476e0f1ff0bf7fa,682b7e5e68da843fe2e2d427,,,,,,,,,,,,1550.7826,6,1550.7827,,,,1553.2894,1553.7865,1552.7848,1553.2893,1551.7835,245,1552.7846,1553.7865,1554.2852,1554.2852,1555.4369,727,1555.4371,2,1556.4352,6,8,188,11,1,1,0.3,Time
,,182072,001,,,2025-05-19_19h59.07.529,Serial_Dependence_U,2023.2.3,Win32,238.0952381,6776816f12ad2c97726dd2ab,68224bc8a476e0f1ff0bf7fa,682b7e5e68da843fe2e2d427,,,,,,,,,,,,1556.4355,6,1556.4356,,,,1559.141,1559.6409,1558.6359,1559.1409,1557.4351,262,1558.6359,1559.6409,1560.1416,1560.1416,1561.4219,1196.8,1561.4219,3,1562.4249,6,9,189,7,1,1.2,0.7,Time
,,182072,001,,,2025-05-19_19h59.07.529,Serial_Dependence_U,2023.2.3,Win32,238.0952381,6776816f12ad2c97726dd2ab,68224bc8a476e0f1ff0bf7fa,682b7e5e68da843fe2e2d427,,,,,,,,,,,,1562.4252,6,1562.4252,,,,1565.5262,1566.0262,1565.0249,1565.5261,1563.4239,111,1565.0249,1566.0262,1566.524,1566.5241,1568.147,1422.9,1568.1471,2,1569.1472,6,10,190,19,1,1.6,0.7,Time
,,182072,001,,,2025-05-19_19h59.07.529,Serial_Dependence_U,2023.2.3,Win32,238.0952381,6776816f12ad2c97726dd2ab,68224bc8a476e0f1ff0bf7fa,682b7e5e68da843fe2e2d427,,,,,,,,,,,,1569.1475,6,1569.1475,,,,1571.856,1572.355,1571.3524,1571.856,1570.149,223,1571.3523,1572.3551,1572.8561,1572.8561,1574.2342,1192.1,1574.2343,3,1575.2351,6,11,191,22,1,1.2,0.3,Time
,,182072,001,,,2025-05-19_19h59.07.529,Serial_Dependence_U,2023.2.3,Win32,238.0952381,6776816f12ad2c97726dd2ab,68224bc8a476e0f1ff0bf7fa,682b7e5e68da843fe2e2d427,,,,,,,,,,,,1575.2353,6,1575.2354,,,,1577.5417,1578.0388,1577.0415,1577.5416,1576.2392,142,1577.0414,1578.0388,1578.5385,1578.5386,1579.7189,950.9,1579.719,4,1580.7176,6,12,192,25,1,0.8,0.7,Time
,,182072,001,,,2025-05-19_19h59.07.529,Serial_Dependence_U,2023.2.3,Win32,238.0952381,6776816f12ad2c97726dd2ab,68224bc8a476e0f1ff0bf7fa,682b7e5e68da843fe2e2d427,,,,,,,,,,,,1580.7178,6,1580.7179,,,,1583.6226,1584.1231,1583.1221,1583.6225,1581.7207,119,1583.122,1584.1232,1584.6234,1584.6234,1586.2124,1503.5,1586.2125,4,1587.2108,6,13,193,8,1,1.4,0.7,Time
,,182072,001,,,2025-05-19_19h59.07.529,Serial_Dependence_U,2023.2.3,Win32,238.0952381,6776816f12ad2c97726dd2ab,68224bc8a476e0f1ff0bf7fa,682b7e5e68da843fe2e2d427,,,,,,,,,,,,1587.2111,6,1587.2112,,,,1590.1205,1590.6207,1589.6175,1590.1204,1588.2163,340,1589.6174,1590.6208,1591.1188,1591.1188,1592.6815,1338.9,1592.6816,3,1593.6781,6,14,194,23,1,1.4,0.3,Time
,,182072,001,,,2025-05-19_19h59.07.529,Serial_Dependence_U,2023.2.3,Win32,238.0952381,6776816f12ad2c97726dd2ab,68224bc8a476e0f1ff0bf7fa,682b7e5e68da843fe2e2d427,,,,,,,,,,,,1593.6784,6,1593.6785,,,,1596.1847,1596.6823,1595.6818,1596.1847,1594.6808,331,1595.6817,1596.6823,1597.1816,1597.1816,1598.6247,1200,1598.6248,4,1599.624,6,15,195,16,1,1,0.7,Time
,,182072,001,,,2025-05-19_19h59.07.529,Serial_Dependence_U,2023.2.3,Win32,238.0952381,6776816f12ad2c97726dd2ab,68224bc8a476e0f1ff0bf7fa,682b7e5e68da843fe2e2d427,,,,,,,,,,,,1599.6242,6,1599.6243,,,,1602.5297,1603.0288,1602.0281,1602.5296,1600.6263,116,1602.0281,1603.0288,1603.5264,1603.5264,1604.6763,1008.9,1604.6765,2,1605.677,6,16,196,13,1,1.4,0.3,Time
,,182072,001,,,2025-05-19_19h59.07.529,Serial_Dependence_U,2023.2.3,Win32,238.0952381,6776816f12ad2c97726dd2ab,68224bc8a476e0f1ff0bf7fa,682b7e5e68da843fe2e2d427,,,,,,,,,,,,1605.6773,6,1605.6773,,,,1607.9794,1608.4797,1607.4789,1607.9793,1606.6783,27,1607.4789,1608.4797,1608.9802,1608.9802,1609.1156,105.7,1609.1157,1,1610.1149,6,17,197,15,1,0.8,0.7,Time
,,182072,001,,,2025-05-19_19h59.07.529,Serial_Dependence_U,2023.2.3,Win32,238.0952381,6776816f12ad2c97726dd2ab,68224bc8a476e0f1ff0bf7fa,682b7e5e68da843fe2e2d427,,,,,,,,,,,,1610.1151,6,1610.1152,,,,1613.2196,1613.7181,1612.7151,1613.2195,1611.113,148,1612.7151,1613.7181,1614.2186,1614.2186,1615.4532,1217.6,1615.4533,2,1616.4501,6,18,198,4,1,1.6,0.3,Time
,,182072,001,,,2025-05-19_19h59.07.529,Serial_Dependence_U,2023.2.3,Win32,238.0952381,6776816f12ad2c97726dd2ab,68224bc8a476e0f1ff0bf7fa,682b7e5e68da843fe2e2d427,,,,,,,,,,,,1616.4504,6,1616.4504,,,,1619.156,1619.6574,1618.6524,1619.1559,1617.4487,70,1618.6523,1619.6574,1620.1563,1620.1563,1621.5382,1110.5,1621.5384,2,1622.5398,6,19,199,27,1,1.2,0.7,Time
,,182072,001,,,2025-05-19_19h59.07.529,Serial_Dependence_U,2023.2.3,Win32,238.0952381,6776816f12ad2c97726dd2ab,68224bc8a476e0f1ff0bf7fa,682b7e5e68da843fe2e2d427,,,,,,,,,,,,1622.54,6,1622.5402,,,,1625.6465,1626.147,1625.146,1625.6465,1623.5429,2,1625.1459,1626.147,1626.6445,1626.6446,1628.3489,1423.7,1628.349,2,1629.3474,6,20,200,14,1,1.6,0.3,Time
,,182072,001,,,2025-05-19_19h59.07.529,Serial_Dependence_U,2023.2.3,Win32,238.0952381,6776816f12ad2c97726dd2ab,68224bc8a476e0f1ff0bf7fa,682b7e5e68da843fe2e2d427,,,,,,,,,,,,1629.3478,6,1629.3478,,,,1631.8554,1632.3572,1631.355,1631.8553,1630.351,46,1631.3549,1632.3572,1632.8551,1632.8551,1634.4801,1300,1634.4802,5,1635.478,6,21,201,6,1,1,0.7,Time
,,182072,001,,,2025-05-19_19h59.07.529,Serial_Dependence_U,2023.2.3,Win32,238.0952381,6776816f12ad2c97726dd2ab,68224bc8a476e0f1ff0bf7fa,682b7e5e68da843fe2e2d427,,,,,,,,,,,,1635.4781,6,1635.4782,,,,1638.3846,1638.8842,1637.8835,1638.3846,1636.4799,205,1637.8834,1638.8842,1639.3817,1639.3817,1640.8318,1122.5,1640.8318,2,1641.8305,6,22,202,28,1,1.4,0.7,Time
,,182072,001,,,2025-05-19_19h59.07.529,Serial_Dependence_U,2023.2.3,Win32,238.0952381,6776816f12ad2c97726dd2ab,68224bc8a476e0f1ff0bf7fa,682b7e5e68da843fe2e2d427,,,,,,,,,,,,1641.8308,6,1641.8308,,,,1644.9399,1645.4395,1644.4353,1644.9399,1642.832,271,1644.4353,1645.4395,1645.9383,1645.9383,1647.6092,1302,1647.6093,2,1648.607,6,23,203,9,1,1.6,0.7,Time
,,182072,001,,,2025-05-19_19h59.07.529,Serial_Dependence_U,2023.2.3,Win32,238.0952381,6776816f12ad2c97726dd2ab,68224bc8a476e0f1ff0bf7fa,682b7e5e68da843fe2e2d427,,,,,,,,,,,,1648.6073,6,1648.6073,,,,1650.9126,1651.41,1650.4122,1650.9126,1649.6082,230,1650.4121,1651.41,1651.9091,1651.9092,1653.1453,963.3,1653.1454,4,1654.1446,6,24,204,5,1,0.8,0.7,Time
,,182072,001,,,2025-05-19_19h59.07.529,Serial_Dependence_U,2023.2.3,Win32,238.0952381,6776816f12ad2c97726dd2ab,68224bc8a476e0f1ff0bf7fa,682b7e5e68da843fe2e2d427,,,,,,,,,,,,1654.1448,6,1654.1449,,,,1656.8498,1657.3477,1656.3446,1656.8497,1655.143,323,1656.3444,1657.3477,1657.8481,1657.8481,1659.3791,1219.9,1659.3793,3,1660.3801,6,25,205,17,1,1.2,0.7,Time
,,182072,001,,,2025-05-19_19h59.07.529,Serial_Dependence_U,2023.2.3,Win32,238.0952381,6776816f12ad2c97726dd2ab,68224bc8a476e0f1ff0bf7fa,682b7e5e68da843fe2e2d427,,,,,,,,,,,,1660.3802,6,1660.3803,,,,1662.6837,1663.1886,1662.1818,1662.6837,1661.3809,296,1662.1817,1663.1886,1663.6892,1663.6892,1664.5882,750.3,1664.5882,2,1665.5889,6,26,206,20,1,0.8,0.3,Time
,,182072,001,,,2025-05-19_19h59.07.529,Serial_Dependence_U,2023.2.3,Win32,238.0952381,6776816f12ad2c97726dd2ab,68224bc8a476e0f1ff0bf7fa,682b7e5e68da843fe2e2d427,,,,,,,,,,,,1665.5893,6,1665.5894,,,,1668.2962,1668.7963,1667.7957,1668.2961,1666.593,321,1667.7956,1668.7964,1669.2942,1669.2942,1670.5738,1069.2,1670.5739,2,1671.5739,6,27,207,2,1,1.2,0.3,Time
,,182072,001,,,2025-05-19_19h59.07.529,Serial_Dependence_U,2023.2.3,Win32,238.0952381,6776816f12ad2c97726dd2ab,68224bc8a476e0f1ff0bf7fa,682b7e5e68da843fe2e2d427,,,,,,,,,,,,1671.5742,6,1671.5743,,,,1674.4811,1674.9785,1673.978,1674.4809,1672.575,54,1673.978,1674.9785,1675.4813,1675.4813,1677.2211,1461.4,1677.2212,3,1678.2224,6,28,208,18,1,1.4,0.7,Time
,,182072,001,,,2025-05-19_19h59.07.529,Serial_Dependence_U,2023.2.3,Win32,238.0952381,6776816f12ad2c97726dd2ab,68224bc8a476e0f1ff0bf7fa,682b7e5e68da843fe2e2d427,,,,,,,,,,,,1678.2226,6,1678.2228,,,,1681.3295,1681.8257,1680.8249,1681.3295,1679.2235,247,1680.8249,1681.8257,1682.324,1682.324,1684.4412,1740.2,1684.4413,4,1685.4417,6,29,209,29,1,1.6,0.7,Time
,,182072,001,,,2025-05-19_19h59.07.529,Serial_Dependence_U,2023.2.3,Win32,238.0952381,6776816f12ad2c97726dd2ab,68224bc8a476e0f1ff0bf7fa,682b7e5e68da843fe2e2d427,,,,,,,,,,,,1685.442,7,1687.702,s,2.2539,,1690.209,1690.709,1689.7082,1690.209,1688.7065,115,1689.7081,1690.709,1691.2096,1691.2096,1692.6796,1168.6,1692.6797,4,1693.6807,7,0,210,11,1,1,0.3,Time
,,182072,001,,,2025-05-19_19h59.07.529,Serial_Dependence_U,2023.2.3,Win32,238.0952381,6776816f12ad2c97726dd2ab,68224bc8a476e0f1ff0bf7fa,682b7e5e68da843fe2e2d427,,,,,,,,,,,,1693.681,7,1693.6815,,,,1696.3897,1696.8904,1695.8892,1696.3897,1694.6881,296,1695.8891,1696.8905,1697.3905,1697.3905,1698.7752,1078.4,1698.7753,2,1699.7738,7,1,211,27,1,1.2,0.7,Time
,,182072,001,,,2025-05-19_19h59.07.529,Serial_Dependence_U,2023.2.3,Win32,238.0952381,6776816f12ad2c97726dd2ab,68224bc8a476e0f1ff0bf7fa,682b7e5e68da843fe2e2d427,,,,,,,,,,,,1699.7742,7,1699.7742,,,,1702.8796,1703.3767,1702.3788,1702.8795,1700.7774,156,1702.3787,1703.3768,1703.8762,1703.8763,1705.098,1129.9,1705.0981,2,1706.0949,7,2,212,24,1,1.6,0.3,Time
,,182072,001,,,2025-05-19_19h59.07.529,Serial_Dependence_U,2023.2.3,Win32,238.0952381,6776816f12ad2c97726dd2ab,68224bc8a476e0f1ff0bf7fa,682b7e5e68da843fe2e2d427,,,,,,,,,,,,1706.0951,7,1706.0953,,,,1709.1979,1709.6981,1708.6975,1709.1978,1707.0961,49,1708.6975,1709.6981,1710.1957,1710.1957,1711.7377,1321,1711.7379,2,1712.7389,7,3,213,14,1,1.6,0.3,Time
,,182072,001,,,2025-05-19_19h59.07.529,Serial_Dependence_U,2023.2.3,Win32,238.0952381,6776816f12ad2c97726dd2ab,68224bc8a476e0f1ff0bf7fa,682b7e5e68da843fe2e2d427,,,,,,,,,,,,1712.739,7,1712.7391,,,,1715.6476,1716.1495,1715.1429,1715.6476,1713.7402,331,1715.1428,1716.1495,1716.6466,1716.6467,1718.2358,1377.7,1718.236,3,1719.2338,7,4,214,18,1,1.4,0.7,Time
,,182072,001,,,2025-05-19_19h59.07.529,Serial_Dependence_U,2023.2.3,Win32,238.0952381,6776816f12ad2c97726dd2ab,68224bc8a476e0f1ff0bf7fa,682b7e5e68da843fe2e2d427,,,,,,,,,,,,1719.2339,7,1719.234,,,,1721.5411,1722.0393,1721.0385,1721.541,1720.2353,341,1721.0384,1722.0393,1722.5398,1722.5398,1723.9495,1214.9,1723.9496,5,1724.9475,7,5,215,10,1,0.8,0.3,Time
,,182072,001,,,2025-05-19_19h59.07.529,Serial_Dependence_U,2023.2.3,Win32,238.0952381,6776816f12ad2c97726dd2ab,68224bc8a476e0f1ff0bf7fa,682b7e5e68da843fe2e2d427,,,,,,,,,,,,1724.9478,7,1724.9478,,,,1727.2577,1727.7549,1726.7553,1727.2576,1725.9517,278,1726.7553,1727.7549,1728.2536,1728.2536,1729.3341,802.6,1729.3342,3,1730.3318,7,6,216,15,1,0.8,0.7,Time
,,182072,001,,,2025-05-19_19h59.07.529,Serial_Dependence_U,2023.2.3,Win32,238.0952381,6776816f12ad2c97726dd2ab,68224bc8a476e0f1ff0bf7fa,682b7e5e68da843fe2e2d427,,,,,,,,,,,,1730.332,7,1730.3322,,,,1732.8334,1733.3336,1732.333,1732.8333,1731.332,107,1732.333,1733.3336,1733.834,1733.834,1735.024,935.3,1735.0241,2,1736.0238,7,7,217,6,1,1,0.7,Time
,,182072,001,,,2025-05-19_19h59.07.529,Serial_Dependence_U,2023.2.3,Win32,238.0952381,6776816f12ad2c97726dd2ab,68224bc8a476e0f1ff0bf7fa,682b7e5e68da843fe2e2d427,,,,,,,,,,,,1736.0241,7,1736.0241,,,,1738.7264,1739.2269,1738.226,1738.7264,1737.0248,253,1738.2259,1739.2269,1739.7274,1739.7274,1741.0388,1181.3,1741.0388,3,1742.0392,7,8,218,7,1,1.2,0.7,Time
,,182072,001,,,2025-05-19_19h59.07.529,Serial_Dependence_U,2023.2.3,Win32,238.0952381,6776816f12ad2c97726dd2ab,68224bc8a476e0f1ff0bf7fa,682b7e5e68da843fe2e2d427,,,,,,,,,,,,1742.0394,7,1742.0394,,,,1744.7405,1745.238,1744.24,1744.7405,1743.0392,98,1744.2399,1745.238,1745.738,1745.738,1747.1763,1270.9,1747.1765,4,1748.1769,7,9,219,12,1,1.2,0.3,Time
,,182072,001,,,2025-05-19_19h59.07.529,Serial_Dependence_U,2023.2.3,Win32,238.0952381,6776816f12ad2c97726dd2ab,68224bc8a476e0f1ff0bf7fa,682b7e5e68da843fe2e2d427,,,,,,,,,,,,1748.1771,7,1748.1773,,,,1750.4838,1750.9841,1749.9807,1750.4837,1749.1782,268,1749.9805,1750.9841,1751.4819,1751.4819,1752.6146,1047.9,1752.6148,5,1753.6156,7,10,220,0,1,0.8,0.3,Time
,,182072,001,,,2025-05-19_19h59.07.529,Serial_Dependence_U,2023.2.3,Win32,238.0952381,6776816f12ad2c97726dd2ab,68224bc8a476e0f1ff0bf7fa,682b7e5e68da843fe2e2d427,,,,,,,,,,,,1753.6158,7,1753.6158,,,,1755.9182,1756.416,1755.4177,1755.9182,1754.6169,88,1755.4177,1756.416,1756.9163,1756.9164,1757.7533,743.7,1757.7534,2,1758.7539,7,11,221,20,1,0.8,0.3,Time
,,182072,001,,,2025-05-19_19h59.07.529,Serial_Dependence_U,2023.2.3,Win32,238.0952381,6776816f12ad2c97726dd2ab,68224bc8a476e0f1ff0bf7fa,682b7e5e68da843fe2e2d427,,,,,,,,,,,,1758.7541,7,1758.7542,,,,1761.0605,1761.5583,1760.5578,1761.0605,1759.7551,36,1760.5578,1761.5584,1762.0576,1762.0576,1762.3994,321.1,1762.3995,1,1763.3974,7,12,222,25,1,0.8,0.7,Time
,,182072,001,,,2025-05-19_19h59.07.529,Serial_Dependence_U,2023.2.3,Win32,238.0952381,6776816f12ad2c97726dd2ab,68224bc8a476e0f1ff0bf7fa,682b7e5e68da843fe2e2d427,,,,,,,,,,,,1763.3977,7,1763.3977,,,,1766.1077,1766.6076,1765.6068,1766.1077,1764.4013,56,1765.6068,1766.6076,1767.1052,1767.1052,1768.497,1111.8,1768.497,2,1769.4949,7,13,223,22,1,1.2,0.3,Time
,,182072,001,,,2025-05-19_19h59.07.529,Serial_Dependence_U,2023.2.3,Win32,238.0952381,6776816f12ad2c97726dd2ab,68224bc8a476e0f1ff0bf7fa,682b7e5e68da843fe2e2d427,,,,,,,,,,,,1769.4952,7,1769.4953,,,,1772.4048,1772.905,1771.9019,1772.4047,1770.5005,285,1771.9018,1772.905,1773.4055,1773.4055,1774.7944,1238.5,1774.7945,2,1775.7955,7,14,224,28,1,1.4,0.7,Time
,,182072,001,,,2025-05-19_19h59.07.529,Serial_Dependence_U,2023.2.3,Win32,238.0952381,6776816f12ad2c97726dd2ab,68224bc8a476e0f1ff0bf7fa,682b7e5e68da843fe2e2d427,,,,,,,,,,,,1775.7958,7,1775.7959,,,,1778.9027,1779.4001,1778.3999,1778.9027,1776.7967,31,1778.3998,1779.4002,1779.8995,1779.8995,1781.3117,1223.7,1781.3118,2,1782.3116,7,15,225,9,1,1.6,0.7,Time
,,182072,001,,,2025-05-19_19h59.07.529,Serial_Dependence_U,2023.2.3,Win32,238.0952381,6776816f12ad2c97726dd2ab,68224bc8a476e0f1ff0bf7fa,682b7e5e68da843fe2e2d427,,,,,,,,,,,,1782.3117,7,1782.3118,,,,1785.013,1785.5104,1784.5123,1785.0129,1783.3111,265,1784.5122,1785.5104,1786.0107,1786.0108,1787.5776,1302.2,1787.5777,4,1788.576,7,16,226,2,1,1.2,0.3,Time
,,182072,001,,,2025-05-19_19h59.07.529,Serial_Dependence_U,2023.2.3,Win32,238.0952381,6776816f12ad2c97726dd2ab,68224bc8a476e0f1ff0bf7fa,682b7e5e68da843fe2e2d427,,,,,,,,,,,,1788.5762,7,1788.5762,,,,1791.6811,1792.1868,1791.1786,1791.6811,1789.5779,298,1791.1785,1792.1868,1792.6827,1792.6827,1793.9379,1207,1793.938,2,1794.9389,7,17,227,29,1,1.6,0.7,Time
,,182072,001,,,2025-05-19_19h59.07.529,Serial_Dependence_U,2023.2.3,Win32,238.0952381,6776816f12ad2c97726dd2ab,68224bc8a476e0f1ff0bf7fa,682b7e5e68da843fe2e2d427,,,,,,,,,,,,1794.9391,7,1794.9393,,,,1797.8434,1798.3423,1797.3416,1797.8434,1795.9405,229,1797.3416,1798.3423,1798.8408,1798.8408,1800.3861,1388.7,1800.3861,3,1801.3828,7,18,228,13,1,1.4,0.3,Time
,,182072,001,,,2025-05-19_19h59.07.529,Serial_Dependence_U,2023.2.3,Win32,238.0952381,6776816f12ad2c97726dd2ab,68224bc8a476e0f1ff0bf7fa,682b7e5e68da843fe2e2d427,,,,,,,,,,,,1801.383,7,1801.3831,,,,1804.2938,1804.7944,1803.7906,1804.2938,1802.3855,354,1803.7905,1804.7944,1805.2946,1805.2946,1806.6502,1251.1,1806.6504,2,1807.651,7,19,229,23,1,1.4,0.3,Time
,,182072,001,,,2025-05-19_19h59.07.529,Serial_Dependence_U,2023.2.3,Win32,238.0952381,6776816f12ad2c97726dd2ab,68224bc8a476e0f1ff0bf7fa,682b7e5e68da843fe2e2d427,,,,,,,,,,,,1807.6513,7,1807.6514,,,,1810.7587,1811.2589,1810.2564,1810.7586,1808.6523,156,1810.2564,1811.259,1811.7594,1811.7594,1813.2833,1429.8,1813.2835,2,1814.2827,7,20,230,19,1,1.6,0.7,Time
,,182072,001,,,2025-05-19_19h59.07.529,Serial_Dependence_U,2023.2.3,Win32,238.0952381,6776816f12ad2c97726dd2ab,68224bc8a476e0f1ff0bf7fa,682b7e5e68da843fe2e2d427,,,,,,,,,,,,1814.283,7,1814.283,,,,1817.3898,1817.8901,1816.8894,1817.3897,1815.2853,317,1816.8893,1817.8901,1818.388,1818.388,1819.8212,1362.8,1819.8213,2,1820.8182,7,21,231,4,1,1.6,0.3,Time
,,182072,001,,,2025-05-19_19h59.07.529,Serial_Dependence_U,2023.2.3,Win32,238.0952381,6776816f12ad2c97726dd2ab,68224bc8a476e0f1ff0bf7fa,682b7e5e68da843fe2e2d427,,,,,,,,,,,,1820.8184,7,1820.8185,,,,1823.7234,1824.2212,1823.2204,1823.7232,1821.8195,36,1823.2204,1824.2213,1824.7208,1824.7208,1826.4652,1593.3,1826.4652,4,1827.466,7,22,232,8,1,1.4,0.7,Time
,,182072,001,,,2025-05-19_19h59.07.529,Serial_Dependence_U,2023.2.3,Win32,238.0952381,6776816f12ad2c97726dd2ab,68224bc8a476e0f1ff0bf7fa,682b7e5e68da843fe2e2d427,,,,,,,,,,,,1827.4663,7,1827.4664,,,,1830.1742,1830.6745,1829.6684,1830.174,1828.4675,287,1829.6683,1830.6745,1831.1741,1831.1741,1832.668,1337.6,1832.6681,4,1833.6667,7,23,233,17,1,1.2,0.7,Time
,,182072,001,,,2025-05-19_19h59.07.529,Serial_Dependence_U,2023.2.3,Win32,238.0952381,6776816f12ad2c97726dd2ab,68224bc8a476e0f1ff0bf7fa,682b7e5e68da843fe2e2d427,,,,,,,,,,,,1833.667,7,1833.667,,,,1836.1785,1836.6793,1835.6721,1836.1783,1834.6694,59,1835.6721,1836.6793,1837.1797,1837.1797,1838.2451,1016.6,1838.2452,3,1839.2441,7,24,234,21,1,1,0.3,Time
,,182072,001,,,2025-05-19_19h59.07.529,Serial_Dependence_U,2023.2.3,Win32,238.0952381,6776816f12ad2c97726dd2ab,68224bc8a476e0f1ff0bf7fa,682b7e5e68da843fe2e2d427,,,,,,,,,,,,1839.2443,7,1839.2443,,,,1841.551,1842.0483,1841.0502,1841.5509,1840.2473,153,1841.0501,1842.0483,1842.5488,1842.5489,1843.6863,1036.7,1843.6864,4,1844.6842,7,25,235,5,1,0.8,0.7,Time
,,182072,001,,,2025-05-19_19h59.07.529,Serial_Dependence_U,2023.2.3,Win32,238.0952381,6776816f12ad2c97726dd2ab,68224bc8a476e0f1ff0bf7fa,682b7e5e68da843fe2e2d427,,,,,,,,,,,,1844.6845,7,1844.6845,,,,1847.1853,1847.6859,1846.6851,1847.1852,1845.684,292,1846.6851,1847.6859,1848.1831,1848.1831,1849.2888,1013.2,1849.289,3,1850.2884,7,26,236,1,1,1,0.3,Time
,,182072,001,,,2025-05-19_19h59.07.529,Serial_Dependence_U,2023.2.3,Win32,238.0952381,6776816f12ad2c97726dd2ab,68224bc8a476e0f1ff0bf7fa,682b7e5e68da843fe2e2d427,,,,,,,,,,,,1850.2887,7,1850.2888,,,,1852.791,1853.2909,1852.2892,1852.7909,1851.2868,148,1852.2891,1853.291,1853.7916,1853.7917,1854.968,1159.5,1854.968,4,1855.9688,7,27,237,26,1,1,0.7,Time
,,182072,001,,,2025-05-19_19h59.07.529,Serial_Dependence_U,2023.2.3,Win32,238.0952381,6776816f12ad2c97726dd2ab,68224bc8a476e0f1ff0bf7fa,682b7e5e68da843fe2e2d427,,,,,,,,,,,,1855.9691,7,1855.9691,,,,1858.8738,1859.3735,1858.3711,1858.8738,1856.9671,356,1858.3709,1859.3735,1859.8723,1859.8723,1861.3657,1369.8,1861.3658,3,1862.3667,7,28,238,3,1,1.4,0.3,Time
,,182072,001,,,2025-05-19_19h59.07.529,Serial_Dependence_U,2023.2.3,Win32,238.0952381,6776816f12ad2c97726dd2ab,68224bc8a476e0f1ff0bf7fa,682b7e5e68da843fe2e2d427,,,,,,,,,,,,1862.3669,7,1862.367,,,,1864.8739,1865.3738,1864.3685,1864.8739,1863.3678,240,1864.3685,1865.3739,1865.874,1865.874,1867.0552,1159.9,1867.0553,4,1868.0576,7,29,239,16,1,1,0.7,Time
,,182072,001,,,2025-05-19_19h59.07.529,Serial_Dependence_U,2023.2.3,Win32,238.0952381,6776816f12ad2c97726dd2ab,68224bc8a476e0f1ff0bf7fa,682b7e5e68da843fe2e2d427,,,,,,,,,,,,1868.0578,8,1869.7063,s,1.6411,,1872.0137,1872.512,1871.5132,1872.0137,1870.7099,292,1871.5131,1872.512,1873.0096,1873.0097,1874.0069,882.7,1874.007,4,1875.0116,8,0,240,15,1,0.8,0.7,Time
,,182072,001,,,2025-05-19_19h59.07.529,Serial_Dependence_U,2023.2.3,Win32,238.0952381,6776816f12ad2c97726dd2ab,68224bc8a476e0f1ff0bf7fa,682b7e5e68da843fe2e2d427,,,,,,,,,,,,1875.0119,8,1875.0125,,,,1877.7192,1878.2167,1877.2187,1877.719,1876.0158,291,1877.2186,1878.2167,1878.7175,1878.7175,1879.9786,1186,1879.9787,3,1880.9761,8,1,241,7,1,1.2,0.7,Time
,,182072,001,,,2025-05-19_19h59.07.529,Serial_Dependence_U,2023.2.3,Win32,238.0952381,6776816f12ad2c97726dd2ab,68224bc8a476e0f1ff0bf7fa,682b7e5e68da843fe2e2d427,,,,,,,,,,,,1880.9763,8,1880.9764,,,,1883.6791,1884.1764,1883.1785,1883.679,1881.9775,126,1883.1784,1884.1764,1884.6771,1884.6771,1885.7727,954.5,1885.7728,2,1886.7734,8,2,242,2,1,1.2,0.3,Time
,,182072,001,,,2025-05-19_19h59.07.529,Serial_Dependence_U,2023.2.3,Win32,238.0952381,6776816f12ad2c97726dd2ab,68224bc8a476e0f1ff0bf7fa,682b7e5e68da843fe2e2d427,,,,,,,,,,,,1886.7736,8,1886.7737,,,,1889.2762,1889.7762,1888.7755,1889.2762,1887.7747,32,1888.7754,1889.7762,1890.2736,1890.2736,1891.3236,982.9,1891.3237,3,1892.3245,8,3,243,16,1,1,0.7,Time
,,182072,001,,,2025-05-19_19h59.07.529,Serial_Dependence_U,2023.2.3,Win32,238.0952381,6776816f12ad2c97726dd2ab,68224bc8a476e0f1ff0bf7fa,682b7e5e68da843fe2e2d427,,,,,,,,,,,,1892.3248,8,1892.3248,,,,1895.0316,1895.5291,1894.5286,1895.0315,1893.3259,26,1894.5285,1895.5291,1896.0283,1896.0283,1897.1147,1038,1897.1148,2,1898.115,8,4,244,12,1,1.2,0.3,Time
,,182072,001,,,2025-05-19_19h59.07.529,Serial_Dependence_U,2023.2.3,Win32,238.0952381,6776816f12ad2c97726dd2ab,68224bc8a476e0f1ff0bf7fa,682b7e5e68da843fe2e2d427,,,,,,,,,,,,1898.1153,8,1898.1153,,,,1900.6202,1901.1205,1900.1199,1900.6202,1899.1188,149,1900.1198,1901.1205,1901.6153,1901.6153,1902.6762,1017.6,1902.6763,3,1903.6743,8,5,245,1,1,1,0.3,Time
,,182072,001,,,2025-05-19_19h59.07.529,Serial_Dependence_U,2023.2.3,Win32,238.0952381,6776816f12ad2c97726dd2ab,68224bc8a476e0f1ff0bf7fa,682b7e5e68da843fe2e2d427,,,,,,,,,,,,1903.6746,8,1903.6746,,,,1906.1755,1906.6759,1905.6751,1906.1755,1904.674,238,1905.675,1906.6759,1907.1735,1907.1735,1908.3028,1019.9,1908.3029,3,1909.3005,8,6,246,26,1,1,0.7,Time
,,182072,001,,,2025-05-19_19h59.07.529,Serial_Dependence_U,2023.2.3,Win32,238.0952381,6776816f12ad2c97726dd2ab,68224bc8a476e0f1ff0bf7fa,682b7e5e68da843fe2e2d427,,,,,,,,,,,,1909.3007,8,1909.3007,,,,1912.0105,1912.5107,1911.5057,1912.0104,1910.3046,8,1911.5057,1912.5107,1913.008,1913.0081,1914.3542,1300.6,1914.3543,4,1915.3551,8,7,247,22,1,1.2,0.3,Time
,,182072,001,,,2025-05-19_19h59.07.529,Serial_Dependence_U,2023.2.3,Win32,238.0952381,6776816f12ad2c97726dd2ab,68224bc8a476e0f1ff0bf7fa,682b7e5e68da843fe2e2d427,,,,,,,,,,,,1915.3553,8,1915.3554,,,,1918.4625,1918.9627,1917.9601,1918.4624,1916.3581,336,1917.9601,1918.9627,1919.4606,1919.4606,1921.0292,1388.5,1921.0292,2,1922.0282,8,8,248,29,1,1.6,0.7,Time
,,182072,001,,,2025-05-19_19h59.07.529,Serial_Dependence_U,2023.2.3,Win32,238.0952381,6776816f12ad2c97726dd2ab,68224bc8a476e0f1ff0bf7fa,682b7e5e68da843fe2e2d427,,,,,,,,,,,,1922.0285,8,1922.0285,,,,1924.5308,1925.03,1924.0302,1924.5308,1923.0294,211,1924.0302,1925.03,1925.5288,1925.5288,1926.8123,1126.2,1926.8124,4,1927.8132,8,9,249,11,1,1,0.3,Time
,,182072,001,,,2025-05-19_19h59.07.529,Serial_Dependence_U,2023.2.3,Win32,238.0952381,6776816f12ad2c97726dd2ab,68224bc8a476e0f1ff0bf7fa,682b7e5e68da843fe2e2d427,,,,,,,,,,,,1927.8135,8,1927.8136,,,,1930.1243,1930.6216,1929.6232,1930.1242,1928.8187,244,1929.6231,1930.6217,1931.1241,1931.1241,1932.1448,921,1932.1449,4,1933.1453,8,10,250,0,1,0.8,0.3,Time
,,182072,001,,,2025-05-19_19h59.07.529,Serial_Dependence_U,2023.2.3,Win32,238.0952381,6776816f12ad2c97726dd2ab,68224bc8a476e0f1ff0bf7fa,682b7e5e68da843fe2e2d427,,,,,,,,,,,,1933.1455,8,1933.1456,,,,1936.0502,1936.5507,1935.5497,1936.0502,1934.1462,144,1935.5497,1936.5507,1937.0504,1937.0504,1938.3985,1313.3,1938.3986,2,1939.3963,8,11,251,28,1,1.4,0.7,Time
,,182072,001,,,2025-05-19_19h59.07.529,Serial_Dependence_U,2023.2.3,Win32,238.0952381,6776816f12ad2c97726dd2ab,68224bc8a476e0f1ff0bf7fa,682b7e5e68da843fe2e2d427,,,,,,,,,,,,1939.3965,8,1939.3965,,,,1941.7017,1942.2018,1941.2011,1941.7016,1940.3984,162,1941.201,1942.2018,1942.7024,1942.7024,1943.5281,792.4,1943.5283,3,1944.5291,8,12,252,20,1,0.8,0.3,Time
,,182072,001,,,2025-05-19_19h59.07.529,Serial_Dependence_U,2023.2.3,Win32,238.0952381,6776816f12ad2c97726dd2ab,68224bc8a476e0f1ff0bf7fa,682b7e5e68da843fe2e2d427,,,,,,,,,,,,1944.5293,8,1944.5293,,,,1946.8359,1947.3334,1946.3332,1946.8359,1945.5319,2,1946.3331,1947.3334,1947.8336,1947.8336,1948.5831,734.9,1948.5832,2,1949.5817,8,13,253,10,1,0.8,0.3,Time
,,182072,001,,,2025-05-19_19h59.07.529,Serial_Dependence_U,2023.2.3,Win32,238.0952381,6776816f12ad2c97726dd2ab,68224bc8a476e0f1ff0bf7fa,682b7e5e68da843fe2e2d427,,,,,,,,,,,,1949.5819,8,1949.5821,,,,1952.6872,1953.1869,1952.1867,1952.6871,1950.5851,244,1952.1866,1953.1869,1953.6879,1953.6879,1955.3062,1518.2,1955.3064,2,1956.3073,8,14,254,19,1,1.6,0.7,Time
,,182072,001,,,2025-05-19_19h59.07.529,Serial_Dependence_U,2023.2.3,Win32,238.0952381,6776816f12ad2c97726dd2ab,68224bc8a476e0f1ff0bf7fa,682b7e5e68da843fe2e2d427,,,,,,,,,,,,1956.3076,8,1956.3076,,,,1959.2143,1959.7146,1958.7112,1959.2142,1957.3086,333,1958.711,1959.7146,1960.2125,1960.2125,1961.5331,1208,1961.5332,2,1962.5301,8,15,255,3,1,1.4,0.3,Time
,,182072,001,,,2025-05-19_19h59.07.529,Serial_Dependence_U,2023.2.3,Win32,238.0952381,6776816f12ad2c97726dd2ab,68224bc8a476e0f1ff0bf7fa,682b7e5e68da843fe2e2d427,,,,,,,,,,,,1962.5302,8,1962.5303,,,,1965.6332,1966.1305,1965.1328,1965.6332,1963.5298,78,1965.1327,1966.1306,1966.6296,1966.6296,1968.3858,1519.8,1968.3858,2,1969.3864,8,16,256,4,1,1.6,0.3,Time
,,182072,001,,,2025-05-19_19h59.07.529,Serial_Dependence_U,2023.2.3,Win32,238.0952381,6776816f12ad2c97726dd2ab,68224bc8a476e0f1ff0bf7fa,682b7e5e68da843fe2e2d427,,,,,,,,,,,,1969.3867,8,1969.3867,,,,1972.0934,1972.5937,1971.5906,1972.0934,1970.3892,166,1971.5905,1972.5937,1973.0912,1973.0912,1974.771,1498,1974.7711,4,1975.7718,8,17,257,27,1,1.2,0.7,Time
,,182072,001,,,2025-05-19_19h59.07.529,Serial_Dependence_U,2023.2.3,Win32,238.0952381,6776816f12ad2c97726dd2ab,68224bc8a476e0f1ff0bf7fa,682b7e5e68da843fe2e2d427,,,,,,,,,,,,1975.7721,8,1975.7721,,,,1978.0786,1978.5789,1977.5754,1978.0786,1976.7729,185,1977.5754,1978.5789,1979.0794,1979.0794,1980.101,764.6,1980.1011,3,1981.098,8,18,258,5,1,0.8,0.7,Time
,,182072,001,,,2025-05-19_19h59.07.529,Serial_Dependence_U,2023.2.3,Win32,238.0952381,6776816f12ad2c97726dd2ab,68224bc8a476e0f1ff0bf7fa,682b7e5e68da843fe2e2d427,,,,,,,,,,,,1981.0983,8,1981.0983,,,,1984.2092,1984.7095,1983.7075,1984.2091,1982.1034,195,1983.7075,1984.7095,1985.2101,1985.2101,1986.4893,1133.5,1986.4894,2,1987.4872,8,19,259,14,1,1.6,0.3,Time
,,182072,001,,,2025-05-19_19h59.07.529,Serial_Dependence_U,2023.2.3,Win32,238.0952381,6776816f12ad2c97726dd2ab,68224bc8a476e0f1ff0bf7fa,682b7e5e68da843fe2e2d427,,,,,,,,,,,,1987.4874,8,1987.4875,,,,1989.7896,1990.2899,1989.2891,1989.7895,1988.4884,108,1989.289,1990.2899,1990.7911,1990.7911,1991.7751,911.5,1991.7752,4,1992.7721,8,20,260,25,1,0.8,0.7,Time
,,182072,001,,,2025-05-19_19h59.07.529,Serial_Dependence_U,2023.2.3,Win32,238.0952381,6776816f12ad2c97726dd2ab,68224bc8a476e0f1ff0bf7fa,682b7e5e68da843fe2e2d427,,,,,,,,,,,,1992.7723,8,1992.7723,,,,1995.679,1996.1791,1995.1746,1995.679,1993.7717,234,1995.1745,1996.1791,1996.6797,1996.6798,1998.0475,1201,1998.0475,2,1999.0456,8,21,261,23,1,1.4,0.3,Time
,,182072,001,,,2025-05-19_19h59.07.529,Serial_Dependence_U,2023.2.3,Win32,238.0952381,6776816f12ad2c97726dd2ab,68224bc8a476e0f1ff0bf7fa,682b7e5e68da843fe2e2d427,,,,,,,,,,,,1999.0458,8,1999.0459,,,,2001.5488,2002.0487,2001.0482,2001.5488,2000.0472,108,2001.0482,2002.0487,2002.5478,2002.5479,2003.7447,1113.9,2003.7447,4,2004.7457,8,22,262,21,1,1,0.3,Time
,,182072,001,,,2025-05-19_19h59.07.529,Serial_Dependence_U,2023.2.3,Win32,238.0952381,6776816f12ad2c97726dd2ab,68224bc8a476e0f1ff0bf7fa,682b7e5e68da843fe2e2d427,,,,,,,,,,,,2004.7458,8,2004.7459,,,,2007.8499,2008.3508,2007.3484,2007.8499,2005.7468,28,2007.3484,2008.3508,2008.851,2008.851,2009.9801,1116.7,2009.9802,1,2010.9783,8,23,263,24,1,1.6,0.3,Time
,,182072,001,,,2025-05-19_19h59.07.529,Serial_Dependence_U,2023.2.3,Win32,238.0952381,6776816f12ad2c97726dd2ab,68224bc8a476e0f1ff0bf7fa,682b7e5e68da843fe2e2d427,,,,,,,,,,,,2010.9784,8,2010.9785,,,,2013.8815,2014.3834,2013.3807,2013.8814,2011.9793,17,2013.3806,2014.3834,2014.8848,2014.8848,2016.6241,1421.7,2016.6242,3,2017.625,8,24,264,13,1,1.4,0.3,Time
,,182072,001,,,2025-05-19_19h59.07.529,Serial_Dependence_U,2023.2.3,Win32,238.0952381,6776816f12ad2c97726dd2ab,68224bc8a476e0f1ff0bf7fa,682b7e5e68da843fe2e2d427,,,,,,,,,,,,2017.6251,8,2017.6253,,,,2020.7278,2021.2256,2020.2276,2020.7278,2018.6261,89,2020.2275,2021.2256,2021.7247,2021.7247,2023.6056,1585.7,2023.6056,3,2024.6026,8,25,265,9,1,1.6,0.7,Time
,,182072,001,,,2025-05-19_19h59.07.529,Serial_Dependence_U,2023.2.3,Win32,238.0952381,6776816f12ad2c97726dd2ab,68224bc8a476e0f1ff0bf7fa,682b7e5e68da843fe2e2d427,,,,,,,,,,,,2024.6028,8,2024.6028,,,,2027.5068,2028.0071,2027.0048,2027.5067,2025.6044,297,2027.0048,2028.0071,2028.5046,2028.5046,2030.259,1455.2,2030.2591,3,2031.2589,8,26,266,18,1,1.4,0.7,Time
,,182072,001,,,2025-05-19_19h59.07.529,Serial_Dependence_U,2023.2.3,Win32,238.0952381,6776816f12ad2c97726dd2ab,68224bc8a476e0f1ff0bf7fa,682b7e5e68da843fe2e2d427,,,,,,,,,,,,2031.2592,8,2031.2592,,,,2034.1675,2034.6664,2033.6633,2034.1675,2032.26,98,2033.6632,2034.6664,2035.1642,2035.1643,2036.9395,1544.9,2036.9396,4,2037.9443,8,27,267,8,1,1.4,0.7,Time
,,182072,001,,,2025-05-19_19h59.07.529,Serial_Dependence_U,2023.2.3,Win32,238.0952381,6776816f12ad2c97726dd2ab,68224bc8a476e0f1ff0bf7fa,682b7e5e68da843fe2e2d427,,,,,,,,,,,,2037.9445,8,2037.9445,,,,2040.4488,2040.9485,2039.9464,2040.4487,2038.9457,77,2039.9464,2040.9485,2041.4489,2041.449,2042.7845,1110.7,2042.7846,4,2043.7833,8,28,268,6,1,1,0.7,Time
,,182072,001,,,2025-05-19_19h59.07.529,Serial_Dependence_U,2023.2.3,Win32,238.0952381,6776816f12ad2c97726dd2ab,68224bc8a476e0f1ff0bf7fa,682b7e5e68da843fe2e2d427,,,,,,,,,,,,2043.7835,8,2043.7836,,,,2046.4863,2046.9865,2045.9856,2046.4862,2044.7845,40,2045.9855,2046.9865,2047.4868,2047.4869,2048.8799,1116.5,2048.8801,2,2049.8797,8,29,269,17,1,1.2,0.7,Time